"rt","responses","type","trial_type","trial_index","time_elapsed","internal_node_id","stimulus","key_press","comparison_type","correct_side"
"3352.820000000065","{""name"":""Deepti""}","NAME","survey-html-form","0","3358","0.0-0.0-0.0","","","",""
"93801.85500000516","","","html-keyboard-response","1","97362","0.0-1.0","Welcome to the <strong>Judgment of Recency</strong> experiment! <p>Press the Space Bar to see the instructions.</p>","32","",""
"24955.164999999397","","","html-keyboard-response","2","122528","0.0-2.0","<p>In this experiment, you will encounter a number of study and question cards.<p>The <strong>study cards</strong> will have two words on it. Take note of these words; you will be asked to judge how recently you have seen them. You will have four seconds to look at the study card.</p><p>The <strong>question cards</strong> will also show you two words (with a red question mark between the words to show that it is a question card). When you encounter a question card, indicate which of the two words shown have been seen on a study card most recently. If a word has not been seen on a study card yet, treat the word as if it occurred a very long time ago. You will indicate which word occurred most recently with the ‘A’ key for the word on the left side and the ‘L’ key for the word on the right side.</p><p>Each word will be seen at most twice: once on a study card and once on a question card.</p><p>Press the Space Bar to begin.</p>","32","",""
"null","","","html-keyboard-response","3","127297","0.0-3.0","<h1 style=""font-size: 35px"">KEEPER</h1><h1 style=""font-size: 35px; margin-top: 45px;"">WRIST</h1>","null","",""
"null","","","html-keyboard-response","4","132078","0.0-4.0","<h1 style=""font-size: 35px"">CHIPMUNK</h1><h1 style=""font-size: 35px; margin-top: 45px;"">COBRA</h1>","null","",""
"null","","","html-keyboard-response","5","136840","0.0-5.0","<h1 style=""font-size: 35px"">HAWK</h1><h1 style=""font-size: 35px; margin-top: 45px;"">SCALPEL</h1>","null","",""
"null","","","html-keyboard-response","6","141597","0.0-6.0","<h1 style=""font-size: 35px"">GRAVE</h1><h1 style=""font-size: 35px; margin-top: 45px;"">ORANGE</h1>","null","",""
"null","","","html-keyboard-response","7","146351","0.0-7.0","<h1 style=""font-size: 35px"">CLOCK</h1><h1 style=""font-size: 35px; margin-top: 45px;"">GROUND</h1>","null","",""
"null","","","html-keyboard-response","8","151129","0.0-8.0","<h1 style=""font-size: 35px"">CLAMP</h1><h1 style=""font-size: 35px; margin-top: 45px;"">REPORT</h1>","null","",""
"null","","","html-keyboard-response","9","155899","0.0-9.0","<h1 style=""font-size: 35px"">BADGE</h1><h1 style=""font-size: 35px; margin-top: 45px;"">LUGGAGE</h1>","null","",""
"2309.349999995902","","","html-keyboard-response","10","158970","0.0-10.0","<h1 style=""font-size: 35px;"">VENUS<span style=""color: #ff0000; padding-left: 50px; padding-right: 50px;""> ? </span>ORANGE</h1>","76","",""
"null","","","html-keyboard-response","11","163736","0.0-11.0","<h1 style=""font-size: 35px"">TOMBSTONE</h1><h1 style=""font-size: 35px; margin-top: 45px;"">CONVICT</h1>","null","",""
"2321.6749999992317","","","html-keyboard-response","12","166814","0.0-12.0","<h1 style=""font-size: 35px;"">CHIPMUNK<span style=""color: #ff0000; padding-left: 50px; padding-right: 50px;""> ? </span>GRAVE</h1>","76","",""
"null","","","html-keyboard-response","13","171584","0.0-13.0","<h1 style=""font-size: 35px"">DASHBOARD</h1><h1 style=""font-size: 35px; margin-top: 45px;"">BANK</h1>","null","",""
"2186.725000006845","","","html-keyboard-response","14","174529","0.0-14.0","<h1 style=""font-size: 35px;"">LUGGAGE<span style=""color: #ff0000; padding-left: 50px; padding-right: 50px;""> ? </span>REPORT</h1>","65","",""
"null","","","html-keyboard-response","15","179300","0.0-15.0","<h1 style=""font-size: 35px"">BODY</h1><h1 style=""font-size: 35px; margin-top: 45px;"">LASER</h1>","null","",""
"1863.6200000037206","","","html-keyboard-response","16","181920","0.0-16.0","<h1 style=""font-size: 35px;"">GROUND<span style=""color: #ff0000; padding-left: 50px; padding-right: 50px;""> ? </span>TEACHER</h1>","65","",""
"null","","","html-keyboard-response","17","186680","0.0-17.0","<h1 style=""font-size: 35px"">HATCHET</h1><h1 style=""font-size: 35px; margin-top: 45px;"">AIRPORT</h1>","null","",""
"1679.694999998901","","","html-keyboard-response","18","189119","0.0-18.0","<h1 style=""font-size: 35px;"">CLAMP<span style=""color: #ff0000; padding-left: 50px; padding-right: 50px;""> ? </span>BANK</h1>","65","",""
"null","","","html-keyboard-response","19","193888","0.0-19.0","<h1 style=""font-size: 35px"">POWDER</h1><h1 style=""font-size: 35px; margin-top: 45px;"">BULLET</h1>","null","",""
"1323.275000002468","","","html-keyboard-response","20","195963","0.0-20.0","<h1 style=""font-size: 35px;"">HATCHET<span style=""color: #ff0000; padding-left: 50px; padding-right: 50px;""> ? </span>CLOCK</h1>","65","",""
"null","","","html-keyboard-response","21","200722","0.0-21.0","<h1 style=""font-size: 35px"">LIVER</h1><h1 style=""font-size: 35px; margin-top: 45px;"">FIDDLE</h1>","null","",""
"1231.9250000000466","","","html-keyboard-response","22","202705","0.0-22.0","<h1 style=""font-size: 35px;"">COBRA<span style=""color: #ff0000; padding-left: 50px; padding-right: 50px;""> ? </span>FIDDLE</h1>","76","",""
"null","","","html-keyboard-response","23","207478","0.0-23.0","<h1 style=""font-size: 35px"">HOUND</h1><h1 style=""font-size: 35px; margin-top: 45px;"">SEAL</h1>","null","",""
"1099.3000000016764","","","html-keyboard-response","24","209336","0.0-24.0","<h1 style=""font-size: 35px;"">PADDING<span style=""color: #ff0000; padding-left: 50px; padding-right: 50px;""> ? </span>CONVICT</h1>","76","",""
"null","","","html-keyboard-response","25","214103","0.0-25.0","<h1 style=""font-size: 35px"">PRINCESS</h1><h1 style=""font-size: 35px; margin-top: 45px;"">SPOON</h1>","null","",""
"884.0799999961746","","","html-keyboard-response","26","215738","0.0-26.0","<h1 style=""font-size: 35px;"">TOMBSTONE<span style=""color: #ff0000; padding-left: 50px; padding-right: 50px;""> ? </span>SPOON</h1>","76","",""
"null","","","html-keyboard-response","27","220518","0.0-27.0","<h1 style=""font-size: 35px"">DOUGHNUT</h1><h1 style=""font-size: 35px; margin-top: 45px;"">CEILING</h1>","null","",""
"1945.5349999989267","","","html-keyboard-response","28","223215","0.0-28.0","<h1 style=""font-size: 35px;"">KEEPER<span style=""color: #ff0000; padding-left: 50px; padding-right: 50px;""> ? </span>PRINCESS</h1>","76","",""
"null","","","html-keyboard-response","29","227979","0.0-29.0","<h1 style=""font-size: 35px"">HIKER</h1><h1 style=""font-size: 35px; margin-top: 45px;"">BROOK</h1>","null","",""
"895.6650000036461","","","html-keyboard-response","30","229629","0.0-30.0","<h1 style=""font-size: 35px;"">CEILING<span style=""color: #ff0000; padding-left: 50px; padding-right: 50px;""> ? </span>CAMEL</h1>","65","",""
"null","","","html-keyboard-response","31","234394","0.0-31.0","<h1 style=""font-size: 35px"">GANGSTER</h1><h1 style=""font-size: 35px; margin-top: 45px;"">HANDBAG</h1>","null","",""
"1877.6599999982864","","","html-keyboard-response","32","237028","0.0-32.0","<h1 style=""font-size: 35px;"">LASER<span style=""color: #ff0000; padding-left: 50px; padding-right: 50px;""> ? </span>HAWK</h1>","76","",""
"null","","","html-keyboard-response","33","241783","0.0-33.0","<h1 style=""font-size: 35px"">TROMBONE</h1><h1 style=""font-size: 35px; margin-top: 45px;"">TOASTER</h1>","null","",""
"1736.3049999985378","","","html-keyboard-response","34","244271","0.0-34.0","<h1 style=""font-size: 35px;"">BULLET<span style=""color: #ff0000; padding-left: 50px; padding-right: 50px;""> ? </span>BODY</h1>","65","",""
"null","","","html-keyboard-response","35","249044","0.0-35.0","<h1 style=""font-size: 35px"">CROWN</h1><h1 style=""font-size: 35px; margin-top: 45px;"">PASSAGE</h1>","null","",""
"761.5250000017113","","","html-keyboard-response","36","250561","0.0-36.0","<h1 style=""font-size: 35px;"">LIVER<span style=""color: #ff0000; padding-left: 50px; padding-right: 50px;""> ? </span>CROWN</h1>","76","",""
"null","","","html-keyboard-response","37","255337","0.0-37.0","<h1 style=""font-size: 35px"">COUNTRY</h1><h1 style=""font-size: 35px; margin-top: 45px;"">CABIN</h1>","null","",""
"1479.140000003099","","","html-keyboard-response","38","257576","0.0-38.0","<h1 style=""font-size: 35px;"">BEAVER<span style=""color: #ff0000; padding-left: 50px; padding-right: 50px;""> ? </span>PASSAGE</h1>","76","",""
"null","","","html-keyboard-response","39","262338","0.0-39.0","<h1 style=""font-size: 35px"">TUBA</h1><h1 style=""font-size: 35px; margin-top: 45px;"">HORNET</h1>","null","",""
"1485.3349999975762","","","html-keyboard-response","40","264583","0.0-40.0","<h1 style=""font-size: 35px;"">WRIST<span style=""color: #ff0000; padding-left: 50px; padding-right: 50px;""> ? </span>HOUND</h1>","76","",""
"null","","","html-keyboard-response","41","269361","0.0-41.0","<h1 style=""font-size: 35px"">EMPIRE</h1><h1 style=""font-size: 35px; margin-top: 45px;"">APPLE</h1>","null","",""
"1079.9849999966682","","","html-keyboard-response","42","271194","0.0-42.0","<h1 style=""font-size: 35px;"">TROMBONE<span style=""color: #ff0000; padding-left: 50px; padding-right: 50px;""> ? </span>HANDBAG</h1>","65","",""
"null","","","html-keyboard-response","43","275958","0.0-43.0","<h1 style=""font-size: 35px"">ROBBER</h1><h1 style=""font-size: 35px; margin-top: 45px;"">PISTON</h1>","null","",""
"952.579999997397","","","html-keyboard-response","44","277665","0.0-44.0","<h1 style=""font-size: 35px;"">ROBBER<span style=""color: #ff0000; padding-left: 50px; padding-right: 50px;""> ? </span>POISON</h1>","65","",""
"null","","","html-keyboard-response","45","282431","0.0-45.0","<h1 style=""font-size: 35px"">ZEBRA</h1><h1 style=""font-size: 35px; margin-top: 45px;"">SUSPECT</h1>","null","",""
"1241.4599999974598","","","html-keyboard-response","46","284424","0.0-46.0","<h1 style=""font-size: 35px;"">BROOK<span style=""color: #ff0000; padding-left: 50px; padding-right: 50px;""> ? </span>APPLE</h1>","76","",""
"null","","","html-keyboard-response","47","289186","0.0-47.0","<h1 style=""font-size: 35px"">THIEF</h1><h1 style=""font-size: 35px; margin-top: 45px;"">QUEEN</h1>","null","",""
"947.4100000006729","","","html-keyboard-response","48","290891","0.0-48.0","<h1 style=""font-size: 35px;"">HORNET<span style=""color: #ff0000; padding-left: 50px; padding-right: 50px;""> ? </span>THIEF</h1>","76","",""
"null","","","html-keyboard-response","49","295657","0.0-49.0","<h1 style=""font-size: 35px"">BANJO</h1><h1 style=""font-size: 35px; margin-top: 45px;"">KIDNEY</h1>","null","",""
"1305.7999999946333","","","html-keyboard-response","50","297715","0.0-50.0","<h1 style=""font-size: 35px;"">KIDNEY<span style=""color: #ff0000; padding-left: 50px; padding-right: 50px;""> ? </span>QUEEN</h1>","65","",""
"null","","","html-keyboard-response","51","302489","0.0-51.0","<h1 style=""font-size: 35px"">POSSUM</h1><h1 style=""font-size: 35px; margin-top: 45px;"">PAPER</h1>","null","",""
"891.3549999997485","","","html-keyboard-response","52","304137","0.0-52.0","<h1 style=""font-size: 35px;"">TUNNEL<span style=""color: #ff0000; padding-left: 50px; padding-right: 50px;""> ? </span>POSSUM</h1>","76","",""
"null","","","html-keyboard-response","53","308908","0.0-53.0","<h1 style=""font-size: 35px"">ROCKET</h1><h1 style=""font-size: 35px; margin-top: 45px;"">BEAKER</h1>","null","",""
"1033.690000003844","","","html-keyboard-response","54","310693","0.0-54.0","<h1 style=""font-size: 35px;"">PISTON<span style=""color: #ff0000; padding-left: 50px; padding-right: 50px;""> ? </span>BEAKER</h1>","76","",""
"null","","","html-keyboard-response","55","315473","0.0-55.0","<h1 style=""font-size: 35px"">WHISKERS</h1><h1 style=""font-size: 35px; margin-top: 45px;"">PREACHER</h1>","null","",""
"666.1049999966053","","","html-keyboard-response","56","316890","0.0-56.0","<h1 style=""font-size: 35px;"">WHISKERS<span style=""color: #ff0000; padding-left: 50px; padding-right: 50px;""> ? </span>COUNTRY</h1>","65","",""
"null","","","html-keyboard-response","57","321651","0.0-57.0","<h1 style=""font-size: 35px"">BATHTUB</h1><h1 style=""font-size: 35px; margin-top: 45px;"">STICKER</h1>","null","",""
"751.6800000012154","","","html-keyboard-response","58","323158","0.0-58.0","<h1 style=""font-size: 35px;"">BATHTUB<span style=""color: #ff0000; padding-left: 50px; padding-right: 50px;""> ? </span>SPOUSE</h1>","65","",""
"null","","","html-keyboard-response","59","327922","0.0-59.0","<h1 style=""font-size: 35px"">ATOM</h1><h1 style=""font-size: 35px; margin-top: 45px;"">CATCHER</h1>","null","",""
"1185.0950000007288","","","html-keyboard-response","60","329872","0.0-60.0","<h1 style=""font-size: 35px;"">HIKER<span style=""color: #ff0000; padding-left: 50px; padding-right: 50px;""> ? </span>PAPER</h1>","76","",""
"null","","","html-keyboard-response","61","334644","0.0-61.0","<h1 style=""font-size: 35px"">RABBIT</h1><h1 style=""font-size: 35px; margin-top: 45px;"">SURVEY</h1>","null","",""
"1413.959999998042","","","html-keyboard-response","62","336818","0.0-62.0","<h1 style=""font-size: 35px;"">PREACHER<span style=""color: #ff0000; padding-left: 50px; padding-right: 50px;""> ? </span>SUSPECT</h1>","65","",""
"null","","","html-keyboard-response","63","341586","0.0-63.0","<h1 style=""font-size: 35px"">STUDENT</h1><h1 style=""font-size: 35px; margin-top: 45px;"">BRAKE</h1>","null","",""
"1013.34499999939","","","html-keyboard-response","64","343346","0.0-64.0","<h1 style=""font-size: 35px;"">SURVEY<span style=""color: #ff0000; padding-left: 50px; padding-right: 50px;""> ? </span>BRAKE</h1>","76","",""
"null","","","html-keyboard-response","65","348116","0.0-65.0","<h1 style=""font-size: 35px"">AUTHOR</h1><h1 style=""font-size: 35px; margin-top: 45px;"">FLIPPER</h1>","null","",""
"1592.964999996184","","","html-keyboard-response","66","350473","0.0-66.0","<h1 style=""font-size: 35px;"">SKETCH<span style=""color: #ff0000; padding-left: 50px; padding-right: 50px;""> ? </span>TUBA</h1>","76","",""
"null","","","html-keyboard-response","67","355239","0.0-67.0","<h1 style=""font-size: 35px"">MISTER</h1><h1 style=""font-size: 35px; margin-top: 45px;"">CRICKET</h1>","null","",""
"1846.720000001369","","","html-keyboard-response","68","357845","0.0-68.0","<h1 style=""font-size: 35px;"">AUTHOR<span style=""color: #ff0000; padding-left: 50px; padding-right: 50px;""> ? </span>STUDENT</h1>","65","",""
"null","","","html-keyboard-response","69","362623","0.0-69.0","<h1 style=""font-size: 35px"">POLICE</h1><h1 style=""font-size: 35px; margin-top: 45px;"">MOTEL</h1>","null","",""
"731.4449999976205","","","html-keyboard-response","70","364115","0.0-70.0","<h1 style=""font-size: 35px;"">MOTEL<span style=""color: #ff0000; padding-left: 50px; padding-right: 50px;""> ? </span>CATCHER</h1>","65","",""
"null","","","html-keyboard-response","71","368889","0.0-71.0","<h1 style=""font-size: 35px"">SERVANT</h1><h1 style=""font-size: 35px; margin-top: 45px;"">CUPBOARD</h1>","null","",""
"1004.0500000031898","","","html-keyboard-response","72","370650","0.0-72.0","<h1 style=""font-size: 35px;"">MISTER<span style=""color: #ff0000; padding-left: 50px; padding-right: 50px;""> ? </span>SWORD</h1>","65","",""
"null","","","html-keyboard-response","73","375413","0.0-73.0","<h1 style=""font-size: 35px"">KLEENEX</h1><h1 style=""font-size: 35px; margin-top: 45px;"">STAKE</h1>","null","",""
"1261.6799999959767","","","html-keyboard-response","74","377438","0.0-74.0","<h1 style=""font-size: 35px;"">STICKER<span style=""color: #ff0000; padding-left: 50px; padding-right: 50px;""> ? </span>CASHEW</h1>","65","16,many","0"
"null","","","html-keyboard-response","75","382196","0.0-75.0","<h1 style=""font-size: 35px"">BROTHER</h1><h1 style=""font-size: 35px; margin-top: 45px;"">STOVE</h1>","null","",""
"661.0050000017509","","","html-keyboard-response","76","383620","0.0-76.0","<h1 style=""font-size: 35px;"">BROTHER<span style=""color: #ff0000; padding-left: 50px; padding-right: 50px;""> ? </span>ATOM</h1>","65","0,16","0"
"null","","","html-keyboard-response","77","388378","0.0-77.0","<h1 style=""font-size: 35px"">FEMALE</h1><h1 style=""font-size: 35px; margin-top: 45px;"">LEADER</h1>","null","",""
"1388.200000001234","","","html-keyboard-response","78","390522","0.0-78.0","<h1 style=""font-size: 35px;"">ROD<span style=""color: #ff0000; padding-left: 50px; padding-right: 50px;""> ? </span>BADGE</h1>","76","68,many","1"
"null","","","html-keyboard-response","79","395285","0.0-79.0","<h1 style=""font-size: 35px"">TABLE</h1><h1 style=""font-size: 35px; margin-top: 45px;"">BISON</h1>","null","",""
"1032.8800000061165","","","html-keyboard-response","80","397070","0.0-80.0","<h1 style=""font-size: 35px;"">PLASTER<span style=""color: #ff0000; padding-left: 50px; padding-right: 50px;""> ? </span>FEMALE</h1>","76","2,many","1"
"null","","","html-keyboard-response","81","401826","0.0-81.0","<h1 style=""font-size: 35px"">LAVA</h1><h1 style=""font-size: 35px; margin-top: 45px;"">PATIENT</h1>","null","",""
"851.7849999989267","","","html-keyboard-response","82","403439","0.0-82.0","<h1 style=""font-size: 35px;"">LEADER<span style=""color: #ff0000; padding-left: 50px; padding-right: 50px;""> ? </span>TABLE</h1>","65","2,4","1"
"null","","","html-keyboard-response","83","408209","0.0-83.0","<h1 style=""font-size: 35px"">GYMNAST</h1><h1 style=""font-size: 35px; margin-top: 45px;"">DORM</h1>","null","",""
"815.6349999990198","","","html-keyboard-response","84","409791","0.0-84.0","<h1 style=""font-size: 35px;"">LAVA<span style=""color: #ff0000; padding-left: 50px; padding-right: 50px;""> ? </span>CRICKET</h1>","65","2,16","0"
"null","","","html-keyboard-response","85","414564","0.0-85.0","<h1 style=""font-size: 35px"">MARINE</h1><h1 style=""font-size: 35px; margin-top: 45px;"">MAPLE</h1>","null","",""
"1706.3000000052853","","","html-keyboard-response","86","417030","0.0-86.0","<h1 style=""font-size: 35px;"">PATIENT<span style=""color: #ff0000; padding-left: 50px; padding-right: 50px;""> ? </span>AIRPORT</h1>","65","4,68","0"
"null","","","html-keyboard-response","87","421793","0.0-87.0","<h1 style=""font-size: 35px"">SEAGULL</h1><h1 style=""font-size: 35px; margin-top: 45px;"">BINDER</h1>","null","",""
"1005.6299999996554","","","html-keyboard-response","88","423551","0.0-88.0","<h1 style=""font-size: 35px;"">MARINE<span style=""color: #ff0000; padding-left: 50px; padding-right: 50px;""> ? </span>POWDER</h1>","65","2,68","0"
"null","","","html-keyboard-response","89","428323","0.0-89.0","<h1 style=""font-size: 35px"">MEAT</h1><h1 style=""font-size: 35px; margin-top: 45px;"">SNAKE</h1>","null","",""
"602.5900000022375","","","html-keyboard-response","90","429685","0.0-90.0","<h1 style=""font-size: 35px;"">KETCHUP<span style=""color: #ff0000; padding-left: 50px; padding-right: 50px;""> ? </span>MEAT</h1>","76","0,many","1"
"null","","","html-keyboard-response","91","434461","0.0-91.0","<h1 style=""font-size: 35px"">COLLEGE</h1><h1 style=""font-size: 35px; margin-top: 45px;"">SPIDER</h1>","null","",""
"1025.0099999975646","","","html-keyboard-response","92","436246","0.0-92.0","<h1 style=""font-size: 35px;"">STOVE<span style=""color: #ff0000; padding-left: 50px; padding-right: 50px;""> ? </span>SEAL</h1>","65","16,68","0"
"null","","","html-keyboard-response","93","441022","0.0-93.0","<h1 style=""font-size: 35px"">SHELTER</h1><h1 style=""font-size: 35px; margin-top: 45px;"">DRILL</h1>","null","",""
"787.3399999953108","","","html-keyboard-response","94","442575","0.0-94.0","<h1 style=""font-size: 35px;"">COLLEGE<span style=""color: #ff0000; padding-left: 50px; padding-right: 50px;""> ? </span>SHELTER</h1>","76","0,2","1"
"null","","","html-keyboard-response","95","447342","0.0-95.0","<h1 style=""font-size: 35px"">LODGE</h1><h1 style=""font-size: 35px; margin-top: 45px;"">LAKE</h1>","null","",""
"722.5200000029872","","","html-keyboard-response","96","448825","0.0-96.0","<h1 style=""font-size: 35px;"">LODGE<span style=""color: #ff0000; padding-left: 50px; padding-right: 50px;""> ? </span>DOUGHNUT</h1>","65","0,68","0"
"null","","","html-keyboard-response","97","453603","0.0-97.0","<h1 style=""font-size: 35px"">TART</h1><h1 style=""font-size: 35px; margin-top: 45px;"">SUBWAY</h1>","null","",""
"2286.840000000666","","","html-keyboard-response","98","456656","0.0-98.0","<h1 style=""font-size: 35px;"">DRILL<span style=""color: #ff0000; padding-left: 50px; padding-right: 50px;""> ? </span>SANDWICH</h1>","65","4,many","0"
"null","","","html-keyboard-response","99","461432","0.0-99.0","<h1 style=""font-size: 35px"">SWIMMER</h1><h1 style=""font-size: 35px; margin-top: 45px;"">COOK</h1>","null","",""
"3260.8299999992596","","","html-keyboard-response","100","465443","0.0-100.0","<h1 style=""font-size: 35px;"">GYMNAST<span style=""color: #ff0000; padding-left: 50px; padding-right: 50px;""> ? </span>LAKE</h1>","76","4,16","1"
"null","","","html-keyboard-response","101","470212","0.0-101.0","<h1 style=""font-size: 35px"">CURTAIN</h1><h1 style=""font-size: 35px; margin-top: 45px;"">LOVER</h1>","null","",""
"1354.5949999970617","","","html-keyboard-response","102","472335","0.0-102.0","<h1 style=""font-size: 35px;"">SUBWAY<span style=""color: #ff0000; padding-left: 50px; padding-right: 50px;""> ? </span>CURTAIN</h1>","76","0,4","1"
"null","","","html-keyboard-response","103","477090","0.0-103.0","<h1 style=""font-size: 35px"">ISLAND</h1><h1 style=""font-size: 35px; margin-top: 45px;"">NIGHTGOWN</h1>","null","",""
"864.0049999958137","","","html-keyboard-response","104","478710","0.0-104.0","<h1 style=""font-size: 35px;"">CASKET<span style=""color: #ff0000; padding-left: 50px; padding-right: 50px;""> ? </span>ISLAND</h1>","76","0,many","1"
"null","","","html-keyboard-response","105","483467","0.0-105.0","<h1 style=""font-size: 35px"">POPCORN</h1><h1 style=""font-size: 35px; margin-top: 45px;"">SLUG</h1>","null","",""
"543.0750000014086","","","html-keyboard-response","106","484773","0.0-106.0","<h1 style=""font-size: 35px;"">POPCORN<span style=""color: #ff0000; padding-left: 50px; padding-right: 50px;""> ? </span>CABIN</h1>","65","0,68","0"
"null","","","html-keyboard-response","107","489531","0.0-107.0","<h1 style=""font-size: 35px"">SHARK</h1><h1 style=""font-size: 35px; margin-top: 45px;"">ACTRESS</h1>","null","",""
"1554.6100000065053","","","html-keyboard-response","108","491849","0.0-108.0","<h1 style=""font-size: 35px;"">SLIME<span style=""color: #ff0000; padding-left: 50px; padding-right: 50px;""> ? </span>SPIDER</h1>","76","16,many","1"
"null","","","html-keyboard-response","109","496611","0.0-109.0","<h1 style=""font-size: 35px"">WAGON</h1><h1 style=""font-size: 35px; margin-top: 45px;"">BARLEY</h1>","null","",""
"1978.560000003199","","","html-keyboard-response","110","499355","0.0-110.0","<h1 style=""font-size: 35px;"">EMPIRE<span style=""color: #ff0000; padding-left: 50px; padding-right: 50px;""> ? </span>MILK</h1>","65","68,many","0"
"null","","","html-keyboard-response","111","504121","0.0-111.0","<h1 style=""font-size: 35px"">CRUTCH</h1><h1 style=""font-size: 35px; margin-top: 45px;"">VALVE</h1>","null","",""
"1341.2700000044424","","","html-keyboard-response","112","506221","0.0-112.0","<h1 style=""font-size: 35px;"">GLASS<span style=""color: #ff0000; padding-left: 50px; padding-right: 50px;""> ? </span>SHARK</h1>","76","4,many","1"
"null","","","html-keyboard-response","113","510977","0.0-113.0","<h1 style=""font-size: 35px"">SCOTCH</h1><h1 style=""font-size: 35px; margin-top: 45px;"">SAUSAGE</h1>","null","",""
"2269.735000001674","","","html-keyboard-response","114","514012","0.0-114.0","<h1 style=""font-size: 35px;"">ZEBRA<span style=""color: #ff0000; padding-left: 50px; padding-right: 50px;""> ? </span>WAGON</h1>","65","4,68","1"
"null","","","html-keyboard-response","115","518776","0.0-115.0","<h1 style=""font-size: 35px"">PENGUIN</h1><h1 style=""font-size: 35px; margin-top: 45px;"">VIRUS</h1>","null","",""
"649.1000000023632","","","html-keyboard-response","116","520189","0.0-116.0","<h1 style=""font-size: 35px;"">PENGUIN<span style=""color: #ff0000; padding-left: 50px; padding-right: 50px;""> ? </span>SCOTCH</h1>","65","0,2","0"
"null","","","html-keyboard-response","117","524954","0.0-117.0","<h1 style=""font-size: 35px"">TEMPLE</h1><h1 style=""font-size: 35px; margin-top: 45px;"">LONDON</h1>","null","",""
"1427.5249999992084","","","html-keyboard-response","118","527141","0.0-118.0","<h1 style=""font-size: 35px;"">SAUSAGE<span style=""color: #ff0000; padding-left: 50px; padding-right: 50px;""> ? </span>LOVER</h1>","65","4,16","0"
"null","","","html-keyboard-response","119","531900","0.0-119.0","<h1 style=""font-size: 35px"">ITEM</h1><h1 style=""font-size: 35px; margin-top: 45px;"">CRITIC</h1>","null","",""
"980.3249999966938","","","html-keyboard-response","120","533641","0.0-120.0","<h1 style=""font-size: 35px;"">TEMPLE<span style=""color: #ff0000; padding-left: 50px; padding-right: 50px;""> ? </span>VIRUS</h1>","65","2,4","0"
"null","","","html-keyboard-response","121","538397","0.0-121.0","<h1 style=""font-size: 35px"">PIZZA</h1><h1 style=""font-size: 35px; margin-top: 45px;"">HOOD</h1>","null","",""
"1377.6999999972759","","","html-keyboard-response","122","540530","0.0-122.0","<h1 style=""font-size: 35px;"">ROCKET<span style=""color: #ff0000; padding-left: 50px; padding-right: 50px;""> ? </span>SLUG</h1>","65","16,68","1"
"null","","","html-keyboard-response","123","545302","0.0-123.0","<h1 style=""font-size: 35px"">CHAPEL</h1><h1 style=""font-size: 35px; margin-top: 45px;"">DRUG</h1>","null","",""
"937.1849999952829","","","html-keyboard-response","124","546999","0.0-124.0","<h1 style=""font-size: 35px;"">PIZZA<span style=""color: #ff0000; padding-left: 50px; padding-right: 50px;""> ? </span>BLOUSE</h1>","65","2,many","0"
"null","","","html-keyboard-response","125","551767","0.0-125.0","<h1 style=""font-size: 35px"">WIDOW</h1><h1 style=""font-size: 35px; margin-top: 45px;"">SKILLET</h1>","null","",""
"994.1749999998137","","","html-keyboard-response","126","553512","0.0-126.0","<h1 style=""font-size: 35px;"">BARLEY<span style=""color: #ff0000; padding-left: 50px; padding-right: 50px;""> ? </span>WIDOW</h1>","76","0,16","1"
"null","","","html-keyboard-response","127","558284","0.0-127.0","<h1 style=""font-size: 35px"">LIGHTNING</h1><h1 style=""font-size: 35px; margin-top: 45px;"">CARROT</h1>","null","",""
"1471.284999999567","","","html-keyboard-response","128","560510","0.0-128.0","<h1 style=""font-size: 35px;"">SKILLET<span style=""color: #ff0000; padding-left: 50px; padding-right: 50px;""> ? </span>CRUTCH</h1>","65","2,16","0"
"null","","","html-keyboard-response","129","565283","0.0-129.0","<h1 style=""font-size: 35px"">SHERIFF</h1><h1 style=""font-size: 35px; margin-top: 45px;"">LETTUCE</h1>","null","",""
"1349.925000002142","","","html-keyboard-response","130","567385","0.0-130.0","<h1 style=""font-size: 35px;"">RABBIT<span style=""color: #ff0000; padding-left: 50px; padding-right: 50px;""> ? </span>LIGHTNING</h1>","65","2,68","1"
"null","","","html-keyboard-response","131","572142","0.0-131.0","<h1 style=""font-size: 35px"">COTTAGE</h1><h1 style=""font-size: 35px; margin-top: 45px;"">LUNCH</h1>","null","",""
"821.750000002794","","","html-keyboard-response","132","573715","0.0-132.0","<h1 style=""font-size: 35px;"">CARROT<span style=""color: #ff0000; padding-left: 50px; padding-right: 50px;""> ? </span>COTTAGE</h1>","76","0,4","1"
"null","","","html-keyboard-response","133","578484","0.0-133.0","<h1 style=""font-size: 35px"">CIGAR</h1><h1 style=""font-size: 35px; margin-top: 45px;"">POET</h1>","null","",""
"953.6799999987707","","","html-keyboard-response","134","580193","0.0-134.0","<h1 style=""font-size: 35px;"">LUNCH<span style=""color: #ff0000; padding-left: 50px; padding-right: 50px;""> ? </span>SHERIFF</h1>","65","2,4","0"
"null","","","html-keyboard-response","135","584971","0.0-135.0","<h1 style=""font-size: 35px"">SLOPE</h1><h1 style=""font-size: 35px; margin-top: 45px;"">VALLEY</h1>","null","",""
"686.3099999972619","","","html-keyboard-response","136","586422","0.0-136.0","<h1 style=""font-size: 35px;"">SLOPE<span style=""color: #ff0000; padding-left: 50px; padding-right: 50px;""> ? </span>LIZARD</h1>","65","0,many","0"
"null","","","html-keyboard-response","137","591184","0.0-137.0","<h1 style=""font-size: 35px"">MARKET</h1><h1 style=""font-size: 35px; margin-top: 45px;"">CAPTIVE</h1>","null","",""
"622.1350000051316","","","html-keyboard-response","138","592562","0.0-138.0","<h1 style=""font-size: 35px;"">MARKET<span style=""color: #ff0000; padding-left: 50px; padding-right: 50px;""> ? </span>HOOD</h1>","65","0,16","0"
"null","","","html-keyboard-response","139","597321","0.0-139.0","<h1 style=""font-size: 35px"">SHOVEL</h1><h1 style=""font-size: 35px; margin-top: 45px;"">CRIB</h1>","null","",""
"2056.000000004191","","","html-keyboard-response","140","600143","0.0-140.0","<h1 style=""font-size: 35px;"">CAPTIVE<span style=""color: #ff0000; padding-left: 50px; padding-right: 50px;""> ? </span>CHAPEL</h1>","65","2,16","0"
"null","","","html-keyboard-response","141","604917","0.0-141.0","<h1 style=""font-size: 35px"">THREAD</h1><h1 style=""font-size: 35px; margin-top: 45px;"">SCARF</h1>","null","",""
"569.8699999992969","","","html-keyboard-response","142","606241","0.0-142.0","<h1 style=""font-size: 35px;"">SHOVEL<span style=""color: #ff0000; padding-left: 50px; padding-right: 50px;""> ? </span>THREAD</h1>","76","0,2","1"
"null","","","html-keyboard-response","143","611012","0.0-143.0","<h1 style=""font-size: 35px"">SADDLE</h1><h1 style=""font-size: 35px; margin-top: 45px;"">COCOON</h1>","null","",""
"1232.2600000042003","","","html-keyboard-response","144","613001","0.0-144.0","<h1 style=""font-size: 35px;"">TABLET<span style=""color: #ff0000; padding-left: 50px; padding-right: 50px;""> ? </span>SCARF</h1>","76","2,many","1"
"null","","","html-keyboard-response","145","617767","0.0-145.0","<h1 style=""font-size: 35px"">GALLON</h1><h1 style=""font-size: 35px; margin-top: 45px;"">XEROX</h1>","null","",""
"910.055000000284","","","html-keyboard-response","146","619429","0.0-146.0","<h1 style=""font-size: 35px;"">SADDLE<span style=""color: #ff0000; padding-left: 50px; padding-right: 50px;""> ? </span>CONCERT</h1>","65","4,many","0"
"null","","","html-keyboard-response","147","624196","0.0-147.0","<h1 style=""font-size: 35px"">NOVEL</h1><h1 style=""font-size: 35px; margin-top: 45px;"">CONTRACT</h1>","null","",""
"670.20500000217","","","html-keyboard-response","148","625630","0.0-148.0","<h1 style=""font-size: 35px;"">BISON<span style=""color: #ff0000; padding-left: 50px; padding-right: 50px;""> ? </span>NOVEL</h1>","76","0,68","1"
"null","","","html-keyboard-response","149","630400","0.0-149.0","<h1 style=""font-size: 35px"">ONION</h1><h1 style=""font-size: 35px; margin-top: 45px;"">SPONGE</h1>","null","",""
"1420.664999997709","","","html-keyboard-response","150","632587","0.0-150.0","<h1 style=""font-size: 35px;"">CIGAR<span style=""color: #ff0000; padding-left: 50px; padding-right: 50px;""> ? </span>EAGLE</h1>","65","16,many","0"
"null","","","html-keyboard-response","151","637355","0.0-151.0","<h1 style=""font-size: 35px"">SHORTS</h1><h1 style=""font-size: 35px; margin-top: 45px;"">TRANSPLANT</h1>","null","",""
"1148.404999999795","","","html-keyboard-response","152","639264","0.0-152.0","<h1 style=""font-size: 35px;"">DORM<span style=""color: #ff0000; padding-left: 50px; padding-right: 50px;""> ? </span>VALLEY</h1>","76","16,68","1"
"null","","","html-keyboard-response","153","644030","0.0-153.0","<h1 style=""font-size: 35px"">FLAG</h1><h1 style=""font-size: 35px; margin-top: 45px;"">DAISY</h1>","null","",""
"971.509999995702","","","html-keyboard-response","154","645750","0.0-154.0","<h1 style=""font-size: 35px;"">ONION<span style=""color: #ff0000; padding-left: 50px; padding-right: 50px;""> ? </span>FLAG</h1>","76","0,4","1"
"null","","","html-keyboard-response","155","650512","0.0-155.0","<h1 style=""font-size: 35px"">SALT</h1><h1 style=""font-size: 35px; margin-top: 45px;"">PROTON</h1>","null","",""
"1661.4899999985937","","","html-keyboard-response","156","652938","0.0-156.0","<h1 style=""font-size: 35px;"">SEAGULL<span style=""color: #ff0000; padding-left: 50px; padding-right: 50px;""> ? </span>PUPIL</h1>","65","68,many","0"
"null","","","html-keyboard-response","157","657695","0.0-157.0","<h1 style=""font-size: 35px"">BOYFRIEND</h1><h1 style=""font-size: 35px; margin-top: 45px;"">PORTRAIT</h1>","null","",""
"2663.124999999185","","","html-keyboard-response","158","661124","0.0-158.0","<h1 style=""font-size: 35px;"">SALT<span style=""color: #ff0000; padding-left: 50px; padding-right: 50px;""> ? </span>SNAKE</h1>","65","2,68","0"
"null","","","html-keyboard-response","159","665890","0.0-159.0","<h1 style=""font-size: 35px"">RACKET</h1><h1 style=""font-size: 35px; margin-top: 45px;"">EXPERT</h1>","null","",""
"1131.664999993518","","","html-keyboard-response","160","667776","0.0-160.0","<h1 style=""font-size: 35px;"">TART<span style=""color: #ff0000; padding-left: 50px; padding-right: 50px;""> ? </span>PROTON</h1>","76","4,68","1"
"null","","","html-keyboard-response","161","672532","0.0-161.0","<h1 style=""font-size: 35px"">COFFEE</h1><h1 style=""font-size: 35px; margin-top: 45px;"">EGYPT</h1>","null","",""
"1821.8299999935552","","","html-keyboard-response","162","675114","0.0-162.0","<h1 style=""font-size: 35px;"">PORTRAIT<span style=""color: #ff0000; padding-left: 50px; padding-right: 50px;""> ? </span>GALLON</h1>","76","4,16","0"
"null","","","html-keyboard-response","163","679880","0.0-163.0","<h1 style=""font-size: 35px"">BREAST</h1><h1 style=""font-size: 35px; margin-top: 45px;"">GOBLIN</h1>","null","",""
"1814.6049999995157","","","html-keyboard-response","164","682454","0.0-164.0","<h1 style=""font-size: 35px;"">CONTRACT<span style=""color: #ff0000; padding-left: 50px; padding-right: 50px;""> ? </span>RACKET</h1>","65","4,16","1"
"null","","","html-keyboard-response","165","687208","0.0-165.0","<h1 style=""font-size: 35px"">STATUE</h1><h1 style=""font-size: 35px; margin-top: 45px;"">WOMAN</h1>","null","",""
"807.0299999963026","","","html-keyboard-response","166","688781","0.0-166.0","<h1 style=""font-size: 35px;"">SPONGE<span style=""color: #ff0000; padding-left: 50px; padding-right: 50px;""> ? </span>STATUE</h1>","76","0,16","1"
"null","","","html-keyboard-response","167","693543","0.0-167.0","<h1 style=""font-size: 35px"">STALLION</h1><h1 style=""font-size: 35px; margin-top: 45px;"">WASHER</h1>","null","",""
"1021.9950000027893","","","html-keyboard-response","168","695328","0.0-168.0","<h1 style=""font-size: 35px;"">SWIMMER<span style=""color: #ff0000; padding-left: 50px; padding-right: 50px;""> ? </span>BREAST</h1>","76","4,68","1"
"null","","","html-keyboard-response","169","700089","0.0-169.0","<h1 style=""font-size: 35px"">VAGRANT</h1><h1 style=""font-size: 35px; margin-top: 45px;"">WORKER</h1>","null","",""
"767.2100000055507","","","html-keyboard-response","170","701608","0.0-170.0","<h1 style=""font-size: 35px;"">STALLION<span style=""color: #ff0000; padding-left: 50px; padding-right: 50px;""> ? </span>VAGRANT</h1>","76","0,2","1"
"null","","","html-keyboard-response","171","706370","0.0-171.0","<h1 style=""font-size: 35px"">MONEY</h1><h1 style=""font-size: 35px; margin-top: 45px;"">BASEMENT</h1>","null","",""
"803.2800000000279","","","html-keyboard-response","172","707927","0.0-172.0","<h1 style=""font-size: 35px;"">MONEY<span style=""color: #ff0000; padding-left: 50px; padding-right: 50px;""> ? </span>NIGHTGOWN</h1>","65","0,68","0"
"null","","","html-keyboard-response","173","712700","0.0-173.0","<h1 style=""font-size: 35px"">DONKEY</h1><h1 style=""font-size: 35px; margin-top: 45px;"">NEUTRON</h1>","null","",""
"1569.95000000461","","","html-keyboard-response","174","715027","0.0-174.0","<h1 style=""font-size: 35px;"">BASEMENT<span style=""color: #ff0000; padding-left: 50px; padding-right: 50px;""> ? </span>DRAGON</h1>","65","2,many","0"
"null","","","html-keyboard-response","175","719795","0.0-175.0","<h1 style=""font-size: 35px"">FLESH</h1><h1 style=""font-size: 35px; margin-top: 45px;"">SWAMP</h1>","null","",""
"1297.585000000312","","","html-keyboard-response","176","721856","0.0-176.0","<h1 style=""font-size: 35px;"">DONKEY<span style=""color: #ff0000; padding-left: 50px; padding-right: 50px;""> ? </span>EXPERT</h1>","65","2,16","0"
"null","","","html-keyboard-response","177","726616","0.0-177.0","<h1 style=""font-size: 35px"">PARTNER</h1><h1 style=""font-size: 35px; margin-top: 45px;"">GREASE</h1>","null","",""
"1149.9350000013364","","","html-keyboard-response","178","728522","0.0-178.0","<h1 style=""font-size: 35px;"">DANCER<span style=""color: #ff0000; padding-left: 50px; padding-right: 50px;""> ? </span>NEUTRON</h1>","76","4,many","1"
"null","","","html-keyboard-response","179","733290","0.0-179.0","<h1 style=""font-size: 35px"">SODA</h1><h1 style=""font-size: 35px; margin-top: 45px;"">ORCHID</h1>","null","",""
"2021.2049999972805","","","html-keyboard-response","180","736064","0.0-180.0","<h1 style=""font-size: 35px;"">VALVE<span style=""color: #ff0000; padding-left: 50px; padding-right: 50px;""> ? </span>BUBBLE</h1>","76","68,many","0"
"null","","","html-keyboard-response","181","740823","0.0-181.0","<h1 style=""font-size: 35px"">CRATER</h1><h1 style=""font-size: 35px; margin-top: 45px;"">IDOL</h1>","null","",""
"1308.9400000026217","","","html-keyboard-response","182","742898","0.0-182.0","<h1 style=""font-size: 35px;"">PIMPLE<span style=""color: #ff0000; padding-left: 50px; padding-right: 50px;""> ? </span>WOMAN</h1>","76","16,many","1"
"null","","","html-keyboard-response","183","747667","0.0-183.0","<h1 style=""font-size: 35px"">RELISH</h1><h1 style=""font-size: 35px; margin-top: 45px;"">LAGOON</h1>","null","",""
"1205.8600000018487","","","html-keyboard-response","184","749625","0.0-184.0","<h1 style=""font-size: 35px;"">SODA<span style=""color: #ff0000; padding-left: 50px; padding-right: 50px;""> ? </span>RELISH</h1>","76","0,4","1"
"null","","","html-keyboard-response","185","754387","0.0-185.0","<h1 style=""font-size: 35px"">GHETTO</h1><h1 style=""font-size: 35px; margin-top: 45px;"">FLEET</h1>","null","",""
"1915.5249999967637","","","html-keyboard-response","186","757066","0.0-186.0","<h1 style=""font-size: 35px;"">LONDON<span style=""color: #ff0000; padding-left: 50px; padding-right: 50px;""> ? </span>LAGOON</h1>","76","2,68","1"
"null","","","html-keyboard-response","187","761822","0.0-187.0","<h1 style=""font-size: 35px"">WIFE</h1><h1 style=""font-size: 35px; margin-top: 45px;"">ICEBERG</h1>","null","",""
"1090.6949999990175","","","html-keyboard-response","188","763668","0.0-188.0","<h1 style=""font-size: 35px;"">GHETTO<span style=""color: #ff0000; padding-left: 50px; padding-right: 50px;""> ? </span>FLEET</h1>","65","2,4","1"
"null","","","html-keyboard-response","189","768434","0.0-189.0","<h1 style=""font-size: 35px"">CARRIAGE</h1><h1 style=""font-size: 35px; margin-top: 45px;"">CAFE</h1>","null","",""
"905.7099999990314","","","html-keyboard-response","190","770103","0.0-190.0","<h1 style=""font-size: 35px;"">GIFT<span style=""color: #ff0000; padding-left: 50px; padding-right: 50px;""> ? </span>CARRIAGE</h1>","76","0,many","1"
"null","","","html-keyboard-response","191","774866","0.0-191.0","<h1 style=""font-size: 35px"">DRESSER</h1><h1 style=""font-size: 35px; margin-top: 45px;"">FOREST</h1>","null","",""
"1235.2150000005495","","","html-keyboard-response","192","776853","0.0-192.0","<h1 style=""font-size: 35px;"">DRUG<span style=""color: #ff0000; padding-left: 50px; padding-right: 50px;""> ? </span>SWAMP</h1>","76","16,68","1"
"null","","","html-keyboard-response","193","781616","0.0-193.0","<h1 style=""font-size: 35px"">HELMET</h1><h1 style=""font-size: 35px; margin-top: 45px;"">AWARD</h1>","null","",""
"2183.0750000007683","","","html-keyboard-response","194","784566","0.0-194.0","<h1 style=""font-size: 35px;"">GREASE<span style=""color: #ff0000; padding-left: 50px; padding-right: 50px;""> ? </span>DRESSER</h1>","76","2,16","1"
"null","","","html-keyboard-response","195","789331","0.0-195.0","<h1 style=""font-size: 35px"">GLOVE</h1><h1 style=""font-size: 35px; margin-top: 45px;"">PORK</h1>","null","",""
"1238.4400000008754","","","html-keyboard-response","196","791336","0.0-196.0","<h1 style=""font-size: 35px;"">FOREST<span style=""color: #ff0000; padding-left: 50px; padding-right: 50px;""> ? </span>HELMET</h1>","76","2,4","1"
"null","","","html-keyboard-response","197","796101","0.0-197.0","<h1 style=""font-size: 35px"">HARP</h1><h1 style=""font-size: 35px; margin-top: 45px;"">REBEL</h1>","null","",""
"1406.25","","","html-keyboard-response","198","798268","0.0-198.0","<h1 style=""font-size: 35px;"">CRATER<span style=""color: #ff0000; padding-left: 50px; padding-right: 50px;""> ? </span>LETTUCE</h1>","76","16,68","0"
"null","","","html-keyboard-response","199","803030","0.0-199.0","<h1 style=""font-size: 35px"">VIKING</h1><h1 style=""font-size: 35px; margin-top: 45px;"">BUREAU</h1>","null","",""
"635.1750000030734","","","html-keyboard-response","200","804429","0.0-200.0","<h1 style=""font-size: 35px;"">GLOVE<span style=""color: #ff0000; padding-left: 50px; padding-right: 50px;""> ? </span>VIKING</h1>","76","0,4","1"
"null","","","html-keyboard-response","201","809207","0.0-201.0","<h1 style=""font-size: 35px"">BOARD</h1><h1 style=""font-size: 35px; margin-top: 45px;"">ROBOT</h1>","null","",""
"1130.42999999749","","","html-keyboard-response","202","811092","0.0-202.0","<h1 style=""font-size: 35px;"">POET<span style=""color: #ff0000; padding-left: 50px; padding-right: 50px;""> ? </span>HARP</h1>","76","4,68","1"
"null","","","html-keyboard-response","203","815845","0.0-203.0","<h1 style=""font-size: 35px"">PRINCE</h1><h1 style=""font-size: 35px; margin-top: 45px;"">MUSTARD</h1>","null","",""
"1241.6500000036322","","","html-keyboard-response","204","817850","0.0-204.0","<h1 style=""font-size: 35px;"">RAZOR<span style=""color: #ff0000; padding-left: 50px; padding-right: 50px;""> ? </span>ICEBERG</h1>","76","16,many","1"
"null","","","html-keyboard-response","205","822617","0.0-205.0","<h1 style=""font-size: 35px"">GIRL</h1><h1 style=""font-size: 35px; margin-top: 45px;"">LIPSTICK</h1>","null","",""
"1511.2050000024028","","","html-keyboard-response","206","824885","0.0-206.0","<h1 style=""font-size: 35px;"">SOFTBALL<span style=""color: #ff0000; padding-left: 50px; padding-right: 50px;""> ? </span>BOARD</h1>","76","4,many","1"
"null","","","html-keyboard-response","207","829654","0.0-207.0","<h1 style=""font-size: 35px"">SERVER</h1><h1 style=""font-size: 35px; margin-top: 45px;"">CASHIER</h1>","null","",""
"771.4199999973644","","","html-keyboard-response","208","831180","0.0-208.0","<h1 style=""font-size: 35px;"">GIRL<span style=""color: #ff0000; padding-left: 50px; padding-right: 50px;""> ? </span>SERVER</h1>","76","0,2","1"
"null","","","html-keyboard-response","209","835953","0.0-209.0","<h1 style=""font-size: 35px"">PADDLE</h1><h1 style=""font-size: 35px; margin-top: 45px;"">RIVER</h1>","null","",""
"1126.8550000021933","","","html-keyboard-response","210","837834","0.0-210.0","<h1 style=""font-size: 35px;"">LIPSTICK<span style=""color: #ff0000; padding-left: 50px; padding-right: 50px;""> ? </span>AWARD</h1>","65","4,16","0"
"null","","","html-keyboard-response","211","842592","0.0-211.0","<h1 style=""font-size: 35px"">SUNRISE</h1><h1 style=""font-size: 35px; margin-top: 45px;"">WASP</h1>","null","",""
"1394.6900000009919","","","html-keyboard-response","212","844738","0.0-212.0","<h1 style=""font-size: 35px;"">PADDLE<span style=""color: #ff0000; padding-left: 50px; padding-right: 50px;""> ? </span>STREAM</h1>","65","2,many","0"
"null","","","html-keyboard-response","213","849490","0.0-213.0","<h1 style=""font-size: 35px"">HEADBAND</h1><h1 style=""font-size: 35px; margin-top: 45px;"">FOOT</h1>","null","",""
"636.9550000018207","","","html-keyboard-response","214","850878","0.0-214.0","<h1 style=""font-size: 35px;"">HEADBAND<span style=""color: #ff0000; padding-left: 50px; padding-right: 50px;""> ? </span>XEROX</h1>","65","0,68","0"
"null","","","html-keyboard-response","215","855647","0.0-215.0","<h1 style=""font-size: 35px"">PIGMENT</h1><h1 style=""font-size: 35px; margin-top: 45px;"">FUNGUS</h1>","null","",""
"691.5000000006985","","","html-keyboard-response","216","857096","0.0-216.0","<h1 style=""font-size: 35px;"">PIGMENT<span style=""color: #ff0000; padding-left: 50px; padding-right: 50px;""> ? </span>BIKE</h1>","65","0,many","0"
"null","","","html-keyboard-response","217","861856","0.0-217.0","<h1 style=""font-size: 35px"">MISSILE</h1><h1 style=""font-size: 35px; margin-top: 45px;"">FLUTE</h1>","null","",""
"535.830000000773","","","html-keyboard-response","218","863156","0.0-218.0","<h1 style=""font-size: 35px;"">MISSILE<span style=""color: #ff0000; padding-left: 50px; padding-right: 50px;""> ? </span>ROBOT</h1>","65","0,16","0"
"null","","","html-keyboard-response","219","867921","0.0-219.0","<h1 style=""font-size: 35px"">CHEST</h1><h1 style=""font-size: 35px; margin-top: 45px;"">SPACE</h1>","null","",""
"1409.3050000009825","","","html-keyboard-response","220","870094","0.0-220.0","<h1 style=""font-size: 35px;"">ARMY<span style=""color: #ff0000; padding-left: 50px; padding-right: 50px;""> ? </span>SHORTS</h1>","65","68,many","1"
"null","","","html-keyboard-response","221","874862","0.0-221.0","<h1 style=""font-size: 35px"">FIREMAN</h1><h1 style=""font-size: 35px; margin-top: 45px;"">SHELF</h1>","null","",""
"973.0550000021467","","","html-keyboard-response","222","876591","0.0-222.0","<h1 style=""font-size: 35px;"">CHEST<span style=""color: #ff0000; padding-left: 50px; padding-right: 50px;""> ? </span>DAISY</h1>","65","2,68","0"
