rt,responses,type,trial_type,trial_index,time_elapsed,internal_node_id,stimulus,key_press,comparison_type,correct_side
3730.59,"{""name"":""Ricardo""}",NAME,survey-html-form,0,3738,0.0-0.0-0.0,,,,
2472.415,,,html-keyboard-response,1,6415,0.0-1.0,Welcome to the <strong>Judgment of Recency</strong> experiment! <p>Press the Space Bar to see the instructions.</p>,32,,
25162.69,,,html-keyboard-response,2,31782,0.0-2.0,"<p>In this experiment, you will encounter a number of study and question cards.<p>The <strong>study cards</strong> will have two words on it. Take note of these words; you will be asked to judge how recently you have seen them. You will have four seconds to look at the study card.</p><p>The <strong>question cards</strong> will also show you two words (with a red question mark between the words to show that it is a question card). When you encounter a question card, indicate which of the two words shown have been seen on a study card most recently. If a word has not been seen on a study card yet, treat the word as if it occurred a very long time ago. You will indicate which word occurred most recently with the ‘A’ key for the word on the left side and the ‘L’ key for the word on the right side.</p><p>Each word will be seen at most twice: once on a study card and once on a question card.</p><p>Press the Space Bar to begin.</p>",32,,
null,,,html-keyboard-response,3,36541,0.0-3.0,"<h1 style=""font-size: 35px"">CUSTARD</h1><h1 style=""font-size: 35px; margin-top: 45px;"">MESSAGE</h1>",null,,
null,,,html-keyboard-response,4,41299,0.0-4.0,"<h1 style=""font-size: 35px"">FRAGRANCE</h1><h1 style=""font-size: 35px; margin-top: 45px;"">RELISH</h1>",null,,
null,,,html-keyboard-response,5,46053,0.0-5.0,"<h1 style=""font-size: 35px"">CHIPMUNK</h1><h1 style=""font-size: 35px; margin-top: 45px;"">CLOCK</h1>",null,,
null,,,html-keyboard-response,6,50809,0.0-6.0,"<h1 style=""font-size: 35px"">HORNET</h1><h1 style=""font-size: 35px; margin-top: 45px;"">PORTRAIT</h1>",null,,
null,,,html-keyboard-response,7,55566,0.0-7.0,"<h1 style=""font-size: 35px"">KETCHUP</h1><h1 style=""font-size: 35px; margin-top: 45px;"">RECORD</h1>",null,,
null,,,html-keyboard-response,8,60322,0.0-8.0,"<h1 style=""font-size: 35px"">PRIMATE</h1><h1 style=""font-size: 35px; margin-top: 45px;"">HOOK</h1>",null,,
null,,,html-keyboard-response,9,65081,0.0-9.0,"<h1 style=""font-size: 35px"">COBRA</h1><h1 style=""font-size: 35px; margin-top: 45px;"">BEAST</h1>",null,,
1909.35,,,html-keyboard-response,10,67743,0.0-10.0,"<h1 style=""font-size: 35px;"">PEANUT<span style=""color: #ff0000; padding-left: 50px; padding-right: 50px;""> ? </span>PORTRAIT</h1>",76,,
null,,,html-keyboard-response,11,72499,0.0-11.0,"<h1 style=""font-size: 35px"">MUFFIN</h1><h1 style=""font-size: 35px; margin-top: 45px;"">ROD</h1>",null,,
2448.64,,,html-keyboard-response,12,75704,0.0-12.0,"<h1 style=""font-size: 35px;"">FRAGRANCE<span style=""color: #ff0000; padding-left: 50px; padding-right: 50px;""> ? </span>HORNET</h1>",76,,
null,,,html-keyboard-response,13,80468,0.0-13.0,"<h1 style=""font-size: 35px"">SCARECROW</h1><h1 style=""font-size: 35px; margin-top: 45px;"">BOYFRIEND</h1>",null,,
1779.935,,,html-keyboard-response,14,82999,0.0-14.0,"<h1 style=""font-size: 35px;"">BEAST<span style=""color: #ff0000; padding-left: 50px; padding-right: 50px;""> ? </span>HOOK</h1>",65,,
null,,,html-keyboard-response,15,87757,0.0-15.0,"<h1 style=""font-size: 35px"">GROUND</h1><h1 style=""font-size: 35px; margin-top: 45px;"">SODA</h1>",null,,
3294.92,,,html-keyboard-response,16,91807,0.0-16.0,"<h1 style=""font-size: 35px;"">RECORD<span style=""color: #ff0000; padding-left: 50px; padding-right: 50px;""> ? </span>CASKET</h1>",65,,
null,,,html-keyboard-response,17,96565,0.0-17.0,"<h1 style=""font-size: 35px"">HOUND</h1><h1 style=""font-size: 35px; margin-top: 45px;"">TEACHER</h1>",null,,
2361.1,,,html-keyboard-response,18,99679,0.0-18.0,"<h1 style=""font-size: 35px;"">PRIMATE<span style=""color: #ff0000; padding-left: 50px; padding-right: 50px;""> ? </span>BOYFRIEND</h1>",76,,
null,,,html-keyboard-response,19,104440,0.0-19.0,"<h1 style=""font-size: 35px"">FLOWER</h1><h1 style=""font-size: 35px; margin-top: 45px;"">CRIB</h1>",null,,
2163.49,,,html-keyboard-response,20,107359,0.0-20.0,"<h1 style=""font-size: 35px;"">HOUND<span style=""color: #ff0000; padding-left: 50px; padding-right: 50px;""> ? </span>KETCHUP</h1>",65,,
null,,,html-keyboard-response,21,112113,0.0-21.0,"<h1 style=""font-size: 35px"">CHEMIST</h1><h1 style=""font-size: 35px; margin-top: 45px;"">WORLD</h1>",null,,
1970.605,,,html-keyboard-response,22,114840,0.0-22.0,"<h1 style=""font-size: 35px;"">RELISH<span style=""color: #ff0000; padding-left: 50px; padding-right: 50px;""> ? </span>WORLD</h1>",76,,
null,,,html-keyboard-response,23,119593,0.0-23.0,"<h1 style=""font-size: 35px"">PILOT</h1><h1 style=""font-size: 35px; margin-top: 45px;"">HANDBAG</h1>",null,,
3612.74,,,html-keyboard-response,24,123960,0.0-24.0,"<h1 style=""font-size: 35px;"">BATHTUB<span style=""color: #ff0000; padding-left: 50px; padding-right: 50px;""> ? </span>ROD</h1>",65,,
null,,,html-keyboard-response,25,128719,0.0-25.0,"<h1 style=""font-size: 35px"">COCKTAIL</h1><h1 style=""font-size: 35px; margin-top: 45px;"">JAPAN</h1>",null,,
2093.895,,,html-keyboard-response,26,131568,0.0-26.0,"<h1 style=""font-size: 35px;"">MUFFIN<span style=""color: #ff0000; padding-left: 50px; padding-right: 50px;""> ? </span>JAPAN</h1>",76,,
null,,,html-keyboard-response,27,136327,0.0-27.0,"<h1 style=""font-size: 35px"">SERVANT</h1><h1 style=""font-size: 35px; margin-top: 45px;"">FRUIT</h1>",null,,
1997.85,,,html-keyboard-response,28,139080,0.0-28.0,"<h1 style=""font-size: 35px;"">CUSTARD<span style=""color: #ff0000; padding-left: 50px; padding-right: 50px;""> ? </span>COCKTAIL</h1>",76,,
null,,,html-keyboard-response,29,143839,0.0-29.0,"<h1 style=""font-size: 35px"">SLOPE</h1><h1 style=""font-size: 35px; margin-top: 45px;"">BIKE</h1>",null,,
2009.26,,,html-keyboard-response,30,146600,0.0-30.0,"<h1 style=""font-size: 35px;"">FRUIT<span style=""color: #ff0000; padding-left: 50px; padding-right: 50px;""> ? </span>XEROX</h1>",65,,
null,,,html-keyboard-response,31,151357,0.0-31.0,"<h1 style=""font-size: 35px"">DENTIST</h1><h1 style=""font-size: 35px; margin-top: 45px;"">OX</h1>",null,,
139.135,,,html-keyboard-response,32,152248,0.0-32.0,"<h1 style=""font-size: 35px;"">SODA<span style=""color: #ff0000; padding-left: 50px; padding-right: 50px;""> ? </span>CHIPMUNK</h1>",76,,
null,,,html-keyboard-response,33,157002,0.0-33.0,"<h1 style=""font-size: 35px"">EAGLE</h1><h1 style=""font-size: 35px; margin-top: 45px;"">MOP</h1>",null,,
2463.38,,,html-keyboard-response,34,160217,0.0-34.0,"<h1 style=""font-size: 35px;"">CRIB<span style=""color: #ff0000; padding-left: 50px; padding-right: 50px;""> ? </span>GROUND</h1>",65,,
null,,,html-keyboard-response,35,164974,0.0-35.0,"<h1 style=""font-size: 35px"">SCARF</h1><h1 style=""font-size: 35px; margin-top: 45px;"">BANK</h1>",null,,
2442.915,,,html-keyboard-response,36,168168,0.0-36.0,"<h1 style=""font-size: 35px;"">CHEMIST<span style=""color: #ff0000; padding-left: 50px; padding-right: 50px;""> ? </span>SCARF</h1>",65,,
null,,,html-keyboard-response,37,172922,0.0-37.0,"<h1 style=""font-size: 35px"">SHOULDER</h1><h1 style=""font-size: 35px; margin-top: 45px;"">FLIPPER</h1>",null,,
1446.25,,,html-keyboard-response,38,175120,0.0-38.0,"<h1 style=""font-size: 35px;"">MEAT<span style=""color: #ff0000; padding-left: 50px; padding-right: 50px;""> ? </span>BANK</h1>",76,,
null,,,html-keyboard-response,39,179880,0.0-39.0,"<h1 style=""font-size: 35px"">CRUTCH</h1><h1 style=""font-size: 35px; margin-top: 45px;"">OFFICE</h1>",null,,
7764.985,,,html-keyboard-response,40,188401,0.0-40.0,"<h1 style=""font-size: 35px;"">MESSAGE<span style=""color: #ff0000; padding-left: 50px; padding-right: 50px;""> ? </span>PILOT</h1>",76,,
null,,,html-keyboard-response,41,193159,0.0-41.0,"<h1 style=""font-size: 35px"">FLEET</h1><h1 style=""font-size: 35px; margin-top: 45px;"">SCOTCH</h1>",null,,
2160.665,,,html-keyboard-response,42,196073,0.0-42.0,"<h1 style=""font-size: 35px;"">EAGLE<span style=""color: #ff0000; padding-left: 50px; padding-right: 50px;""> ? </span>OX</h1>",76,,
null,,,html-keyboard-response,43,200832,0.0-43.0,"<h1 style=""font-size: 35px"">OZONE</h1><h1 style=""font-size: 35px; margin-top: 45px;"">LUNCH</h1>",null,,
1377.535,,,html-keyboard-response,44,202961,0.0-44.0,"<h1 style=""font-size: 35px;"">OZONE<span style=""color: #ff0000; padding-left: 50px; padding-right: 50px;""> ? </span>WITNESS</h1>",65,,
null,,,html-keyboard-response,45,207721,0.0-45.0,"<h1 style=""font-size: 35px"">PASTRY</h1><h1 style=""font-size: 35px; margin-top: 45px;"">MISSILE</h1>",null,,
3573.875,,,html-keyboard-response,46,212049,0.0-46.0,"<h1 style=""font-size: 35px;"">BIKE<span style=""color: #ff0000; padding-left: 50px; padding-right: 50px;""> ? </span>SCOTCH</h1>",65,,
null,,,html-keyboard-response,47,216805,0.0-47.0,"<h1 style=""font-size: 35px"">CITRUS</h1><h1 style=""font-size: 35px; margin-top: 45px;"">HIGHWAY</h1>",null,,
1536.42,,,html-keyboard-response,48,219097,0.0-48.0,"<h1 style=""font-size: 35px;"">OFFICE<span style=""color: #ff0000; padding-left: 50px; padding-right: 50px;""> ? </span>CITRUS</h1>",76,,
null,,,html-keyboard-response,49,223858,0.0-49.0,"<h1 style=""font-size: 35px"">APPLE</h1><h1 style=""font-size: 35px; margin-top: 45px;"">ACTOR</h1>",null,,
2443.63,,,html-keyboard-response,50,227057,0.0-50.0,"<h1 style=""font-size: 35px;"">ACTOR<span style=""color: #ff0000; padding-left: 50px; padding-right: 50px;""> ? </span>HIGHWAY</h1>",65,,
null,,,html-keyboard-response,51,231811,0.0-51.0,"<h1 style=""font-size: 35px"">POPCORN</h1><h1 style=""font-size: 35px; margin-top: 45px;"">RUG</h1>",null,,
1058.145,,,html-keyboard-response,52,233626,0.0-52.0,"<h1 style=""font-size: 35px;"">BRACES<span style=""color: #ff0000; padding-left: 50px; padding-right: 50px;""> ? </span>POPCORN</h1>",76,,
null,,,html-keyboard-response,53,238380,0.0-53.0,"<h1 style=""font-size: 35px"">CLIMBER</h1><h1 style=""font-size: 35px; margin-top: 45px;"">FILM</h1>",null,,
1334.535,,,html-keyboard-response,54,240466,0.0-54.0,"<h1 style=""font-size: 35px;"">LUNCH<span style=""color: #ff0000; padding-left: 50px; padding-right: 50px;""> ? </span>FILM</h1>",76,,
null,,,html-keyboard-response,55,245224,0.0-55.0,"<h1 style=""font-size: 35px"">BRICK</h1><h1 style=""font-size: 35px; margin-top: 45px;"">BUTCHER</h1>",null,,
1198,,,html-keyboard-response,56,247178,0.0-56.0,"<h1 style=""font-size: 35px;"">BRICK<span style=""color: #ff0000; padding-left: 50px; padding-right: 50px;""> ? </span>SHOULDER</h1>",65,,
null,,,html-keyboard-response,57,251936,0.0-57.0,"<h1 style=""font-size: 35px"">NAPKIN</h1><h1 style=""font-size: 35px; margin-top: 45px;"">GALLON</h1>",null,,
909.935,,,html-keyboard-response,58,253602,0.0-58.0,"<h1 style=""font-size: 35px;"">NAPKIN<span style=""color: #ff0000; padding-left: 50px; padding-right: 50px;""> ? </span>RADISH</h1>",65,,
null,,,html-keyboard-response,59,258363,0.0-59.0,"<h1 style=""font-size: 35px"">WHISKERS</h1><h1 style=""font-size: 35px; margin-top: 45px;"">FRIAR</h1>",null,,
1925.795,,,html-keyboard-response,60,261042,0.0-60.0,"<h1 style=""font-size: 35px;"">SLOPE<span style=""color: #ff0000; padding-left: 50px; padding-right: 50px;""> ? </span>RUG</h1>",76,,
null,,,html-keyboard-response,61,265800,0.0-61.0,"<h1 style=""font-size: 35px"">BARLEY</h1><h1 style=""font-size: 35px; margin-top: 45px;"">LUMBER</h1>",null,,
1162.315,,,html-keyboard-response,62,267714,0.0-62.0,"<h1 style=""font-size: 35px;"">BUTCHER<span style=""color: #ff0000; padding-left: 50px; padding-right: 50px;""> ? </span>MISSILE</h1>",65,,
null,,,html-keyboard-response,63,272473,0.0-63.0,"<h1 style=""font-size: 35px"">LADY</h1><h1 style=""font-size: 35px; margin-top: 45px;"">LODGE</h1>",null,,
984.13,,,html-keyboard-response,64,274211,0.0-64.0,"<h1 style=""font-size: 35px;"">LUMBER<span style=""color: #ff0000; padding-left: 50px; padding-right: 50px;""> ? </span>LODGE</h1>",76,,
null,,,html-keyboard-response,65,278969,0.0-65.0,"<h1 style=""font-size: 35px"">CATCHER</h1><h1 style=""font-size: 35px; margin-top: 45px;"">HARP</h1>",null,,
2533.69,,,html-keyboard-response,66,282259,0.0-66.0,"<h1 style=""font-size: 35px;"">THREAD<span style=""color: #ff0000; padding-left: 50px; padding-right: 50px;""> ? </span>CRUTCH</h1>",76,,
null,,,html-keyboard-response,67,287011,0.0-67.0,"<h1 style=""font-size: 35px"">JOURNAL</h1><h1 style=""font-size: 35px; margin-top: 45px;"">JUDGE</h1>",null,,
1848.21,,,html-keyboard-response,68,289611,0.0-68.0,"<h1 style=""font-size: 35px;"">CATCHER<span style=""color: #ff0000; padding-left: 50px; padding-right: 50px;""> ? </span>LADY</h1>",65,,
null,,,html-keyboard-response,69,294370,0.0-69.0,"<h1 style=""font-size: 35px"">CLOTHES</h1><h1 style=""font-size: 35px; margin-top: 45px;"">DOUGHNUT</h1>",null,,
2167.56,,,html-keyboard-response,70,297291,0.0-70.0,"<h1 style=""font-size: 35px;"">DOUGHNUT<span style=""color: #ff0000; padding-left: 50px; padding-right: 50px;""> ? </span>FRIAR</h1>",65,,
null,,,html-keyboard-response,71,302052,0.0-71.0,"<h1 style=""font-size: 35px"">BURGLAR</h1><h1 style=""font-size: 35px; margin-top: 45px;"">OINTMENT</h1>",null,,
1867.675,,,html-keyboard-response,72,304675,0.0-72.0,"<h1 style=""font-size: 35px;"">JOURNAL<span style=""color: #ff0000; padding-left: 50px; padding-right: 50px;""> ? </span>PISTON</h1>",65,,
null,,,html-keyboard-response,73,309430,0.0-73.0,"<h1 style=""font-size: 35px"">COOK</h1><h1 style=""font-size: 35px; margin-top: 45px;"">ZIPPER</h1>",null,,
4440.805,,,html-keyboard-response,74,314627,0.0-74.0,"<h1 style=""font-size: 35px;"">GALLON<span style=""color: #ff0000; padding-left: 50px; padding-right: 50px;""> ? </span>ORCHID</h1>",65,"16,many",0
null,,,html-keyboard-response,75,319380,0.0-75.0,"<h1 style=""font-size: 35px"">BRANCH</h1><h1 style=""font-size: 35px; margin-top: 45px;"">HAWK</h1>",null,,
907.595,,,html-keyboard-response,76,321043,0.0-76.0,"<h1 style=""font-size: 35px;"">BRANCH<span style=""color: #ff0000; padding-left: 50px; padding-right: 50px;""> ? </span>WHISKERS</h1>",65,"0,16",0
null,,,html-keyboard-response,77,325800,0.0-77.0,"<h1 style=""font-size: 35px"">PLUTO</h1><h1 style=""font-size: 35px; margin-top: 45px;"">GIFT</h1>",null,,
1312.7,,,html-keyboard-response,78,327868,0.0-78.0,"<h1 style=""font-size: 35px;"">LIVER<span style=""color: #ff0000; padding-left: 50px; padding-right: 50px;""> ? </span>COBRA</h1>",76,"68,many",1
null,,,html-keyboard-response,79,332623,0.0-79.0,"<h1 style=""font-size: 35px"">SHRUB</h1><h1 style=""font-size: 35px; margin-top: 45px;"">ROOSTER</h1>",null,,
3344.875,,,html-keyboard-response,80,336724,0.0-80.0,"<h1 style=""font-size: 35px;"">FLASK<span style=""color: #ff0000; padding-left: 50px; padding-right: 50px;""> ? </span>PLUTO</h1>",76,"2,many",1
null,,,html-keyboard-response,81,341479,0.0-81.0,"<h1 style=""font-size: 35px"">ITEM</h1><h1 style=""font-size: 35px; margin-top: 45px;"">BLADE</h1>",null,,
3390.435,,,html-keyboard-response,82,345620,0.0-82.0,"<h1 style=""font-size: 35px;"">GIFT<span style=""color: #ff0000; padding-left: 50px; padding-right: 50px;""> ? </span>SHRUB</h1>",76,"2,4",1
null,,,html-keyboard-response,83,350375,0.0-83.0,"<h1 style=""font-size: 35px"">BANJO</h1><h1 style=""font-size: 35px; margin-top: 45px;"">SPONGE</h1>",null,,
1354.125,,,html-keyboard-response,84,352484,0.0-84.0,"<h1 style=""font-size: 35px;"">ITEM<span style=""color: #ff0000; padding-left: 50px; padding-right: 50px;""> ? </span>JUDGE</h1>",76,"2,16",0
null,,,html-keyboard-response,85,357242,0.0-85.0,"<h1 style=""font-size: 35px"">CANDY</h1><h1 style=""font-size: 35px; margin-top: 45px;"">GYMNAST</h1>",null,,
1245.79,,,html-keyboard-response,86,359244,0.0-86.0,"<h1 style=""font-size: 35px;"">BLADE<span style=""color: #ff0000; padding-left: 50px; padding-right: 50px;""> ? </span>TEACHER</h1>",65,"4,68",0
null,,,html-keyboard-response,87,364003,0.0-87.0,"<h1 style=""font-size: 35px"">JELLY</h1><h1 style=""font-size: 35px; margin-top: 45px;"">COUNTRY</h1>",null,,
1320.775,,,html-keyboard-response,88,366076,0.0-88.0,"<h1 style=""font-size: 35px;"">CANDY<span style=""color: #ff0000; padding-left: 50px; padding-right: 50px;""> ? </span>FLOWER</h1>",65,"2,68",0
null,,,html-keyboard-response,89,370834,0.0-89.0,"<h1 style=""font-size: 35px"">KEEPER</h1><h1 style=""font-size: 35px; margin-top: 45px;"">COURSE</h1>",null,,
1567.78,,,html-keyboard-response,90,373156,0.0-90.0,"<h1 style=""font-size: 35px;"">NIGHTGOWN<span style=""color: #ff0000; padding-left: 50px; padding-right: 50px;""> ? </span>KEEPER</h1>",76,"0,many",1
null,,,html-keyboard-response,91,377908,0.0-91.0,"<h1 style=""font-size: 35px"">MAILMAN</h1><h1 style=""font-size: 35px; margin-top: 45px;"">TUBA</h1>",null,,
15581.81,,,html-keyboard-response,92,394244,0.0-92.0,"<h1 style=""font-size: 35px;"">HAWK<span style=""color: #ff0000; padding-left: 50px; padding-right: 50px;""> ? </span>HANDBAG</h1>",65,"16,68",0
null,,,html-keyboard-response,93,399001,0.0-93.0,"<h1 style=""font-size: 35px"">TYPIST</h1><h1 style=""font-size: 35px; margin-top: 45px;"">SPOOL</h1>",null,,
4007.45,,,html-keyboard-response,94,403765,0.0-94.0,"<h1 style=""font-size: 35px;"">MAILMAN<span style=""color: #ff0000; padding-left: 50px; padding-right: 50px;""> ? </span>TYPIST</h1>",76,"0,2",1
null,,,html-keyboard-response,95,408523,0.0-95.0,"<h1 style=""font-size: 35px"">BUGGY</h1><h1 style=""font-size: 35px; margin-top: 45px;"">HORSE</h1>",null,,
805.82,,,html-keyboard-response,96,410085,0.0-96.0,"<h1 style=""font-size: 35px;"">BUGGY<span style=""color: #ff0000; padding-left: 50px; padding-right: 50px;""> ? </span>SERVANT</h1>",65,"0,68",0
null,,,html-keyboard-response,97,414839,0.0-97.0,"<h1 style=""font-size: 35px"">BINDER</h1><h1 style=""font-size: 35px; margin-top: 45px;"">YARN</h1>",null,,
1556.37,,,html-keyboard-response,98,417149,0.0-98.0,"<h1 style=""font-size: 35px;"">SPOOL<span style=""color: #ff0000; padding-left: 50px; padding-right: 50px;""> ? </span>PEDAL</h1>",65,"4,many",0
null,,,html-keyboard-response,99,421906,0.0-99.0,"<h1 style=""font-size: 35px"">TABLET</h1><h1 style=""font-size: 35px; margin-top: 45px;"">SILK</h1>",null,,
1432.53,,,html-keyboard-response,100,424093,0.0-100.0,"<h1 style=""font-size: 35px;"">BANJO<span style=""color: #ff0000; padding-left: 50px; padding-right: 50px;""> ? </span>HORSE</h1>",76,"4,16",1
null,,,html-keyboard-response,101,428851,0.0-101.0,"<h1 style=""font-size: 35px"">MARKET</h1><h1 style=""font-size: 35px; margin-top: 45px;"">GUARD</h1>",null,,
1152.53,,,html-keyboard-response,102,430757,0.0-102.0,"<h1 style=""font-size: 35px;"">YARN<span style=""color: #ff0000; padding-left: 50px; padding-right: 50px;""> ? </span>MARKET</h1>",76,"0,4",1
null,,,html-keyboard-response,103,435517,0.0-103.0,"<h1 style=""font-size: 35px"">INMATE</h1><h1 style=""font-size: 35px; margin-top: 45px;"">TWEEZERS</h1>",null,,
1213.695,,,html-keyboard-response,104,437485,0.0-104.0,"<h1 style=""font-size: 35px;"">EXPERT<span style=""color: #ff0000; padding-left: 50px; padding-right: 50px;""> ? </span>INMATE</h1>",76,"0,many",1
null,,,html-keyboard-response,105,442244,0.0-105.0,"<h1 style=""font-size: 35px"">FINGER</h1><h1 style=""font-size: 35px; margin-top: 45px;"">PLAZA</h1>",null,,
1149.535,,,html-keyboard-response,106,444149,0.0-106.0,"<h1 style=""font-size: 35px;"">FINGER<span style=""color: #ff0000; padding-left: 50px; padding-right: 50px;""> ? </span>FLIPPER</h1>",65,"0,68",0
null,,,html-keyboard-response,107,448905,0.0-107.0,"<h1 style=""font-size: 35px"">ELBOW</h1><h1 style=""font-size: 35px; margin-top: 45px;"">VELVET</h1>",null,,
1128.89,,,html-keyboard-response,108,450790,0.0-108.0,"<h1 style=""font-size: 35px;"">GRIZZLY<span style=""color: #ff0000; padding-left: 50px; padding-right: 50px;""> ? </span>TUBA</h1>",76,"16,many",1
null,,,html-keyboard-response,109,455550,0.0-109.0,"<h1 style=""font-size: 35px"">CAPTIVE</h1><h1 style=""font-size: 35px; margin-top: 45px;"">FLAG</h1>",null,,
2984.91,,,html-keyboard-response,110,459286,0.0-110.0,"<h1 style=""font-size: 35px;"">FLEET<span style=""color: #ff0000; padding-left: 50px; padding-right: 50px;""> ? </span>SAUSAGE</h1>",65,"68,many",0
null,,,html-keyboard-response,111,464041,0.0-111.0,"<h1 style=""font-size: 35px"">NOVEL</h1><h1 style=""font-size: 35px; margin-top: 45px;"">SHELTER</h1>",null,,
3029.445,,,html-keyboard-response,112,467822,0.0-112.0,"<h1 style=""font-size: 35px;"">SHERIFF<span style=""color: #ff0000; padding-left: 50px; padding-right: 50px;""> ? </span>ELBOW</h1>",65,"4,many",1
null,,,html-keyboard-response,113,472581,0.0-113.0,"<h1 style=""font-size: 35px"">COFFEE</h1><h1 style=""font-size: 35px; margin-top: 45px;"">TUNNEL</h1>",null,,
3054.01,,,html-keyboard-response,114,476391,0.0-114.0,"<h1 style=""font-size: 35px;"">PASTRY<span style=""color: #ff0000; padding-left: 50px; padding-right: 50px;""> ? </span>CAPTIVE</h1>",76,"4,68",1
null,,,html-keyboard-response,115,481143,0.0-115.0,"<h1 style=""font-size: 35px"">GARLIC</h1><h1 style=""font-size: 35px; margin-top: 45px;"">MATCH</h1>",null,,
738.705,,,html-keyboard-response,116,482638,0.0-116.0,"<h1 style=""font-size: 35px;"">GARLIC<span style=""color: #ff0000; padding-left: 50px; padding-right: 50px;""> ? </span>COFFEE</h1>",65,"0,2",0
null,,,html-keyboard-response,117,487392,0.0-117.0,"<h1 style=""font-size: 35px"">HERO</h1><h1 style=""font-size: 35px; margin-top: 45px;"">BALLOON</h1>",null,,
3957.76,,,html-keyboard-response,118,492102,0.0-118.0,"<h1 style=""font-size: 35px;"">TUNNEL<span style=""color: #ff0000; padding-left: 50px; padding-right: 50px;""> ? </span>GUARD</h1>",76,"4,16",0
null,,,html-keyboard-response,119,496854,0.0-119.0,"<h1 style=""font-size: 35px"">TRENCH</h1><h1 style=""font-size: 35px; margin-top: 45px;"">PLIERS</h1>",null,,
2621,,,html-keyboard-response,120,500227,0.0-120.0,"<h1 style=""font-size: 35px;"">HERO<span style=""color: #ff0000; padding-left: 50px; padding-right: 50px;""> ? </span>MATCH</h1>",76,"2,4",0
null,,,html-keyboard-response,121,504986,0.0-121.0,"<h1 style=""font-size: 35px"">CREATURE</h1><h1 style=""font-size: 35px; margin-top: 45px;"">WAITRESS</h1>",null,,
1332.825,,,html-keyboard-response,122,507071,0.0-122.0,"<h1 style=""font-size: 35px;"">CLIMBER<span style=""color: #ff0000; padding-left: 50px; padding-right: 50px;""> ? </span>PLAZA</h1>",76,"16,68",1
null,,,html-keyboard-response,123,511831,0.0-123.0,"<h1 style=""font-size: 35px"">BOX</h1><h1 style=""font-size: 35px; margin-top: 45px;"">GRAVEL</h1>",null,,
1485.715,,,html-keyboard-response,124,514070,0.0-124.0,"<h1 style=""font-size: 35px;"">CREATURE<span style=""color: #ff0000; padding-left: 50px; padding-right: 50px;""> ? </span>VIRUS</h1>",65,"2,many",0
null,,,html-keyboard-response,125,518828,0.0-125.0,"<h1 style=""font-size: 35px"">FLESH</h1><h1 style=""font-size: 35px; margin-top: 45px;"">BLENDER</h1>",null,,
5922.375,,,html-keyboard-response,126,525503,0.0-126.0,"<h1 style=""font-size: 35px;"">FLAG<span style=""color: #ff0000; padding-left: 50px; padding-right: 50px;""> ? </span>FLESH</h1>",76,"0,16",1
null,,,html-keyboard-response,127,530263,0.0-127.0,"<h1 style=""font-size: 35px"">CHILD</h1><h1 style=""font-size: 35px; margin-top: 45px;"">PASSAGE</h1>",null,,
1707.84,,,html-keyboard-response,128,532727,0.0-128.0,"<h1 style=""font-size: 35px;"">BLENDER<span style=""color: #ff0000; padding-left: 50px; padding-right: 50px;""> ? </span>NOVEL</h1>",65,"2,16",0
null,,,html-keyboard-response,129,537483,0.0-129.0,"<h1 style=""font-size: 35px"">BANKER</h1><h1 style=""font-size: 35px; margin-top: 45px;"">SHARK</h1>",null,,
1503.9,,,html-keyboard-response,130,539743,0.0-130.0,"<h1 style=""font-size: 35px;"">BARLEY<span style=""color: #ff0000; padding-left: 50px; padding-right: 50px;""> ? </span>CHILD</h1>",76,"2,68",1
null,,,html-keyboard-response,131,544501,0.0-131.0,"<h1 style=""font-size: 35px"">BOUQUET</h1><h1 style=""font-size: 35px; margin-top: 45px;"">NEUTRON</h1>",null,,
1016.86,,,html-keyboard-response,132,546271,0.0-132.0,"<h1 style=""font-size: 35px;"">PASSAGE<span style=""color: #ff0000; padding-left: 50px; padding-right: 50px;""> ? </span>BOUQUET</h1>",76,"0,4",1
null,,,html-keyboard-response,133,551029,0.0-133.0,"<h1 style=""font-size: 35px"">LION</h1><h1 style=""font-size: 35px; margin-top: 45px;"">THRONE</h1>",null,,
1518.545,,,html-keyboard-response,134,553303,0.0-134.0,"<h1 style=""font-size: 35px;"">NEUTRON<span style=""color: #ff0000; padding-left: 50px; padding-right: 50px;""> ? </span>BANKER</h1>",65,"2,4",0
null,,,html-keyboard-response,135,558063,0.0-135.0,"<h1 style=""font-size: 35px"">POLICE</h1><h1 style=""font-size: 35px; margin-top: 45px;"">OUTFIT</h1>",null,,
1173.805,,,html-keyboard-response,136,559991,0.0-136.0,"<h1 style=""font-size: 35px;"">POLICE<span style=""color: #ff0000; padding-left: 50px; padding-right: 50px;""> ? </span>DRILL</h1>",65,"0,many",0
null,,,html-keyboard-response,137,564751,0.0-137.0,"<h1 style=""font-size: 35px"">DRUG</h1><h1 style=""font-size: 35px; margin-top: 45px;"">WAITER</h1>",null,,
1620.755,,,html-keyboard-response,138,567128,0.0-138.0,"<h1 style=""font-size: 35px;"">DRUG<span style=""color: #ff0000; padding-left: 50px; padding-right: 50px;""> ? </span>WAITRESS</h1>",65,"0,16",0
null,,,html-keyboard-response,139,571885,0.0-139.0,"<h1 style=""font-size: 35px"">AIRPORT</h1><h1 style=""font-size: 35px; margin-top: 45px;"">BUBBLE</h1>",null,,
3566.35,,,html-keyboard-response,140,576208,0.0-140.0,"<h1 style=""font-size: 35px;"">WAITER<span style=""color: #ff0000; padding-left: 50px; padding-right: 50px;""> ? </span>BOX</h1>",65,"2,16",0
null,,,html-keyboard-response,141,580967,0.0-141.0,"<h1 style=""font-size: 35px"">SKIRT</h1><h1 style=""font-size: 35px; margin-top: 45px;"">PENGUIN</h1>",null,,
1112.61,,,html-keyboard-response,142,582832,0.0-142.0,"<h1 style=""font-size: 35px;"">AIRPORT<span style=""color: #ff0000; padding-left: 50px; padding-right: 50px;""> ? </span>SKIRT</h1>",76,"0,2",1
null,,,html-keyboard-response,143,587585,0.0-143.0,"<h1 style=""font-size: 35px"">PERMIT</h1><h1 style=""font-size: 35px; margin-top: 45px;"">COUCH</h1>",null,,
2349.65,,,html-keyboard-response,144,590688,0.0-144.0,"<h1 style=""font-size: 35px;"">RAFT<span style=""color: #ff0000; padding-left: 50px; padding-right: 50px;""> ? </span>PENGUIN</h1>",76,"2,many",1
null,,,html-keyboard-response,145,595441,0.0-145.0,"<h1 style=""font-size: 35px"">SWAMP</h1><h1 style=""font-size: 35px; margin-top: 45px;"">LAKE</h1>",null,,
1395.48,,,html-keyboard-response,146,597592,0.0-146.0,"<h1 style=""font-size: 35px;"">PERMIT<span style=""color: #ff0000; padding-left: 50px; padding-right: 50px;""> ? </span>LOFT</h1>",65,"4,many",0
null,,,html-keyboard-response,147,602349,0.0-147.0,"<h1 style=""font-size: 35px"">NURSE</h1><h1 style=""font-size: 35px; margin-top: 45px;"">COSTUME</h1>",null,,
1408.295,,,html-keyboard-response,148,604512,0.0-148.0,"<h1 style=""font-size: 35px;"">ROOSTER<span style=""color: #ff0000; padding-left: 50px; padding-right: 50px;""> ? </span>NURSE</h1>",76,"0,68",1
null,,,html-keyboard-response,149,609269,0.0-149.0,"<h1 style=""font-size: 35px"">CLAMP</h1><h1 style=""font-size: 35px; margin-top: 45px;"">WHISTLE</h1>",null,,
2975.695,,,html-keyboard-response,150,613001,0.0-150.0,"<h1 style=""font-size: 35px;"">LION<span style=""color: #ff0000; padding-left: 50px; padding-right: 50px;""> ? </span>PLAID</h1>",65,"16,many",0
null,,,html-keyboard-response,151,617753,0.0-151.0,"<h1 style=""font-size: 35px"">PALACE</h1><h1 style=""font-size: 35px; margin-top: 45px;"">GREASE</h1>",null,,
3325.755,,,html-keyboard-response,152,621832,0.0-152.0,"<h1 style=""font-size: 35px;"">SPONGE<span style=""color: #ff0000; padding-left: 50px; padding-right: 50px;""> ? </span>OUTFIT</h1>",76,"16,68",1
null,,,html-keyboard-response,153,626594,0.0-153.0,"<h1 style=""font-size: 35px"">SALAD</h1><h1 style=""font-size: 35px; margin-top: 45px;"">CROSS</h1>",null,,
938.705,,,html-keyboard-response,154,628288,0.0-154.0,"<h1 style=""font-size: 35px;"">CLAMP<span style=""color: #ff0000; padding-left: 50px; padding-right: 50px;""> ? </span>SALAD</h1>",76,"0,4",1
null,,,html-keyboard-response,155,633048,0.0-155.0,"<h1 style=""font-size: 35px"">FLUTE</h1><h1 style=""font-size: 35px; margin-top: 45px;"">BADGE</h1>",null,,
5980.835,,,html-keyboard-response,156,639785,0.0-156.0,"<h1 style=""font-size: 35px;"">JELLY<span style=""color: #ff0000; padding-left: 50px; padding-right: 50px;""> ? </span>PACKAGE</h1>",76,"68,many",0
null,,,html-keyboard-response,157,644546,0.0-157.0,"<h1 style=""font-size: 35px"">CARRIAGE</h1><h1 style=""font-size: 35px; margin-top: 45px;"">CARROT</h1>",null,,
6283.14,,,html-keyboard-response,158,651585,0.0-158.0,"<h1 style=""font-size: 35px;"">FLUTE<span style=""color: #ff0000; padding-left: 50px; padding-right: 50px;""> ? </span>COURSE</h1>",76,"2,68",0
null,,,html-keyboard-response,159,656347,0.0-159.0,"<h1 style=""font-size: 35px"">CONCERT</h1><h1 style=""font-size: 35px; margin-top: 45px;"">TREAT</h1>",null,,
4508.17,,,html-keyboard-response,160,661607,0.0-160.0,"<h1 style=""font-size: 35px;"">BINDER<span style=""color: #ff0000; padding-left: 50px; padding-right: 50px;""> ? </span>BADGE</h1>",65,"4,68",1
null,,,html-keyboard-response,161,666363,0.0-161.0,"<h1 style=""font-size: 35px"">TURTLE</h1><h1 style=""font-size: 35px; margin-top: 45px;"">DANCER</h1>",null,,
5066.185,,,html-keyboard-response,162,672185,0.0-162.0,"<h1 style=""font-size: 35px;"">CARROT<span style=""color: #ff0000; padding-left: 50px; padding-right: 50px;""> ? </span>SWAMP</h1>",65,"4,16",0
null,,,html-keyboard-response,163,676942,0.0-163.0,"<h1 style=""font-size: 35px"">OUTLAW</h1><h1 style=""font-size: 35px; margin-top: 45px;"">SPIDER</h1>",null,,
2623.625,,,html-keyboard-response,164,680321,0.0-164.0,"<h1 style=""font-size: 35px;"">COSTUME<span style=""color: #ff0000; padding-left: 50px; padding-right: 50px;""> ? </span>CONCERT</h1>",76,"4,16",1
null,,,html-keyboard-response,165,685078,0.0-165.0,"<h1 style=""font-size: 35px"">DONOR</h1><h1 style=""font-size: 35px; margin-top: 45px;"">STAMP</h1>",null,,
1071.485,,,html-keyboard-response,166,686906,0.0-166.0,"<h1 style=""font-size: 35px;"">WHISTLE<span style=""color: #ff0000; padding-left: 50px; padding-right: 50px;""> ? </span>DONOR</h1>",76,"0,16",1
null,,,html-keyboard-response,167,691665,0.0-167.0,"<h1 style=""font-size: 35px"">EMPIRE</h1><h1 style=""font-size: 35px; margin-top: 45px;"">SUPPER</h1>",null,,
4534.985,,,html-keyboard-response,168,696954,0.0-168.0,"<h1 style=""font-size: 35px;"">TABLET<span style=""color: #ff0000; padding-left: 50px; padding-right: 50px;""> ? </span>OUTLAW</h1>",65,"4,68",1
null,,,html-keyboard-response,169,701709,0.0-169.0,"<h1 style=""font-size: 35px"">SLIME</h1><h1 style=""font-size: 35px; margin-top: 45px;"">DRIVER</h1>",null,,
1056.485,,,html-keyboard-response,170,703522,0.0-170.0,"<h1 style=""font-size: 35px;"">EMPIRE<span style=""color: #ff0000; padding-left: 50px; padding-right: 50px;""> ? </span>SLIME</h1>",76,"0,2",1
null,,,html-keyboard-response,171,708281,0.0-171.0,"<h1 style=""font-size: 35px"">PADDLE</h1><h1 style=""font-size: 35px; margin-top: 45px;"">CHAMPAGNE</h1>",null,,
861.865,,,html-keyboard-response,172,709898,0.0-172.0,"<h1 style=""font-size: 35px;"">PADDLE<span style=""color: #ff0000; padding-left: 50px; padding-right: 50px;""> ? </span>TWEEZERS</h1>",65,"0,68",0
null,,,html-keyboard-response,173,714657,0.0-173.0,"<h1 style=""font-size: 35px"">CRAB</h1><h1 style=""font-size: 35px; margin-top: 45px;"">FUNGUS</h1>",null,,
1273.235,,,html-keyboard-response,174,716682,0.0-174.0,"<h1 style=""font-size: 35px;"">CHAMPAGNE<span style=""color: #ff0000; padding-left: 50px; padding-right: 50px;""> ? </span>LONDON</h1>",65,"2,many",0
null,,,html-keyboard-response,175,721442,0.0-175.0,"<h1 style=""font-size: 35px"">LUGGAGE</h1><h1 style=""font-size: 35px; margin-top: 45px;"">BRANDY</h1>",null,,
1447.2,,,html-keyboard-response,176,723642,0.0-176.0,"<h1 style=""font-size: 35px;"">CRAB<span style=""color: #ff0000; padding-left: 50px; padding-right: 50px;""> ? </span>TREAT</h1>",65,"2,16",0
null,,,html-keyboard-response,177,728396,0.0-177.0,"<h1 style=""font-size: 35px"">SCALPEL</h1><h1 style=""font-size: 35px; margin-top: 45px;"">FIREMAN</h1>",null,,
1547.195,,,html-keyboard-response,178,730698,0.0-178.0,"<h1 style=""font-size: 35px;"">BASEMENT<span style=""color: #ff0000; padding-left: 50px; padding-right: 50px;""> ? </span>FUNGUS</h1>",76,"4,many",1
null,,,html-keyboard-response,179,735452,0.0-179.0,"<h1 style=""font-size: 35px"">CLAM</h1><h1 style=""font-size: 35px; margin-top: 45px;"">DIME</h1>",null,,
2890.995,,,html-keyboard-response,180,739099,0.0-180.0,"<h1 style=""font-size: 35px;"">SHELTER<span style=""color: #ff0000; padding-left: 50px; padding-right: 50px;""> ? </span>FREEZER</h1>",65,"68,many",0
null,,,html-keyboard-response,181,743854,0.0-181.0,"<h1 style=""font-size: 35px"">CHURCH</h1><h1 style=""font-size: 35px; margin-top: 45px;"">GRILL</h1>",null,,
2706.145,,,html-keyboard-response,182,747315,0.0-182.0,"<h1 style=""font-size: 35px;"">COMET<span style=""color: #ff0000; padding-left: 50px; padding-right: 50px;""> ? </span>STAMP</h1>",76,"16,many",1
null,,,html-keyboard-response,183,752069,0.0-183.0,"<h1 style=""font-size: 35px"">PRINCESS</h1><h1 style=""font-size: 35px; margin-top: 45px;"">MONSTER</h1>",null,,
917.995,,,html-keyboard-response,184,753739,0.0-184.0,"<h1 style=""font-size: 35px;"">CLAM<span style=""color: #ff0000; padding-left: 50px; padding-right: 50px;""> ? </span>PRINCESS</h1>",76,"0,4",1
null,,,html-keyboard-response,185,758498,0.0-185.0,"<h1 style=""font-size: 35px"">TERMITE</h1><h1 style=""font-size: 35px; margin-top: 45px;"">YACHT</h1>",null,,
1373.22,,,html-keyboard-response,186,760627,0.0-186.0,"<h1 style=""font-size: 35px;"">BALLOON<span style=""color: #ff0000; padding-left: 50px; padding-right: 50px;""> ? </span>MONSTER</h1>",76,"2,68",1
null,,,html-keyboard-response,187,765384,0.0-187.0,"<h1 style=""font-size: 35px"">GIRL</h1><h1 style=""font-size: 35px; margin-top: 45px;"">LILY</h1>",null,,
3550.95,,,html-keyboard-response,188,769691,0.0-188.0,"<h1 style=""font-size: 35px;"">TERMITE<span style=""color: #ff0000; padding-left: 50px; padding-right: 50px;""> ? </span>YACHT</h1>",65,"2,4",1
null,,,html-keyboard-response,189,774449,0.0-189.0,"<h1 style=""font-size: 35px"">BLOCKADE</h1><h1 style=""font-size: 35px; margin-top: 45px;"">INFANT</h1>",null,,
1131.165,,,html-keyboard-response,190,776332,0.0-190.0,"<h1 style=""font-size: 35px;"">FOOT<span style=""color: #ff0000; padding-left: 50px; padding-right: 50px;""> ? </span>BLOCKADE</h1>",76,"0,many",1
null,,,html-keyboard-response,191,781091,0.0-191.0,"<h1 style=""font-size: 35px"">TRUCK</h1><h1 style=""font-size: 35px; margin-top: 45px;"">BEAVER</h1>",null,,
1212.37,,,html-keyboard-response,192,783059,0.0-192.0,"<h1 style=""font-size: 35px;"">GRAVEL<span style=""color: #ff0000; padding-left: 50px; padding-right: 50px;""> ? </span>BRANDY</h1>",76,"16,68",1
null,,,html-keyboard-response,193,787817,0.0-193.0,"<h1 style=""font-size: 35px"">SALT</h1><h1 style=""font-size: 35px; margin-top: 45px;"">POISON</h1>",null,,
1894.505,,,html-keyboard-response,194,790467,0.0-194.0,"<h1 style=""font-size: 35px;"">FIREMAN<span style=""color: #ff0000; padding-left: 50px; padding-right: 50px;""> ? </span>TRUCK</h1>",65,"2,16",1
null,,,html-keyboard-response,195,795224,0.0-195.0,"<h1 style=""font-size: 35px"">BULLET</h1><h1 style=""font-size: 35px; margin-top: 45px;"">BUREAU</h1>",null,,
1810.89,,,html-keyboard-response,196,797788,0.0-196.0,"<h1 style=""font-size: 35px;"">BEAVER<span style=""color: #ff0000; padding-left: 50px; padding-right: 50px;""> ? </span>SALT</h1>",65,"2,4",1
null,,,html-keyboard-response,197,802546,0.0-197.0,"<h1 style=""font-size: 35px"">DONKEY</h1><h1 style=""font-size: 35px; margin-top: 45px;"">DOLPHIN</h1>",null,,
2094.695,,,html-keyboard-response,198,805395,0.0-198.0,"<h1 style=""font-size: 35px;"">CHURCH<span style=""color: #ff0000; padding-left: 50px; padding-right: 50px;""> ? </span>SHARK</h1>",65,"16,68",0
null,,,html-keyboard-response,199,810156,0.0-199.0,"<h1 style=""font-size: 35px"">TWIG</h1><h1 style=""font-size: 35px; margin-top: 45px;"">FOREST</h1>",null,,
1184.59,,,html-keyboard-response,200,812092,0.0-200.0,"<h1 style=""font-size: 35px;"">BULLET<span style=""color: #ff0000; padding-left: 50px; padding-right: 50px;""> ? </span>TWIG</h1>",76,"0,4",1
null,,,html-keyboard-response,201,816847,0.0-201.0,"<h1 style=""font-size: 35px"">HUMAN</h1><h1 style=""font-size: 35px; margin-top: 45px;"">BOARD</h1>",null,,
1929.165,,,html-keyboard-response,202,819532,0.0-202.0,"<h1 style=""font-size: 35px;"">THRONE<span style=""color: #ff0000; padding-left: 50px; padding-right: 50px;""> ? </span>DONKEY</h1>",76,"4,68",1
null,,,html-keyboard-response,203,824289,0.0-203.0,"<h1 style=""font-size: 35px"">VALLEY</h1><h1 style=""font-size: 35px; margin-top: 45px;"">CONVICT</h1>",null,,
1539.6,,,html-keyboard-response,204,826580,0.0-204.0,"<h1 style=""font-size: 35px;"">ARMY<span style=""color: #ff0000; padding-left: 50px; padding-right: 50px;""> ? </span>LILY</h1>",76,"16,many",1
null,,,html-keyboard-response,205,831341,0.0-205.0,"<h1 style=""font-size: 35px"">CHAUFFEUR</h1><h1 style=""font-size: 35px; margin-top: 45px;"">MOTOR</h1>",null,,
1269.97,,,html-keyboard-response,206,833364,0.0-206.0,"<h1 style=""font-size: 35px;"">STONE<span style=""color: #ff0000; padding-left: 50px; padding-right: 50px;""> ? </span>HUMAN</h1>",76,"4,many",1
null,,,html-keyboard-response,207,838119,0.0-207.0,"<h1 style=""font-size: 35px"">STAR</h1><h1 style=""font-size: 35px; margin-top: 45px;"">LEOPARD</h1>",null,,
961.21,,,html-keyboard-response,208,839836,0.0-208.0,"<h1 style=""font-size: 35px;"">CHAUFFEUR<span style=""color: #ff0000; padding-left: 50px; padding-right: 50px;""> ? </span>STAR</h1>",76,"0,2",1
null,,,html-keyboard-response,209,844595,0.0-209.0,"<h1 style=""font-size: 35px"">BLUEPRINT</h1><h1 style=""font-size: 35px; margin-top: 45px;"">KIDNEY</h1>",null,,
2008.37,,,html-keyboard-response,210,847357,0.0-210.0,"<h1 style=""font-size: 35px;"">MOTOR<span style=""color: #ff0000; padding-left: 50px; padding-right: 50px;""> ? </span>POISON</h1>",65,"4,16",0
null,,,html-keyboard-response,211,852110,0.0-211.0,"<h1 style=""font-size: 35px"">MAPLE</h1><h1 style=""font-size: 35px; margin-top: 45px;"">SLUG</h1>",null,,
1293.72,,,html-keyboard-response,212,854157,0.0-212.0,"<h1 style=""font-size: 35px;"">BLUEPRINT<span style=""color: #ff0000; padding-left: 50px; padding-right: 50px;""> ? </span>PICNIC</h1>",65,"2,many",0
null,,,html-keyboard-response,213,858911,0.0-213.0,"<h1 style=""font-size: 35px"">VAGRANT</h1><h1 style=""font-size: 35px; margin-top: 45px;"">SIBLING</h1>",null,,
933.805,,,html-keyboard-response,214,860597,0.0-214.0,"<h1 style=""font-size: 35px;"">VAGRANT<span style=""color: #ff0000; padding-left: 50px; padding-right: 50px;""> ? </span>LAKE</h1>",65,"0,68",0
null,,,html-keyboard-response,215,865353,0.0-215.0,"<h1 style=""font-size: 35px"">TOMBSTONE</h1><h1 style=""font-size: 35px; margin-top: 45px;"">CANAL</h1>",null,,
698.14,,,html-keyboard-response,216,866805,0.0-216.0,"<h1 style=""font-size: 35px;"">TOMBSTONE<span style=""color: #ff0000; padding-left: 50px; padding-right: 50px;""> ? </span>COMPASS</h1>",65,"0,many",0
null,,,html-keyboard-response,217,871565,0.0-217.0,"<h1 style=""font-size: 35px"">PEBBLE</h1><h1 style=""font-size: 35px; margin-top: 45px;"">DAISY</h1>",null,,
1165.935,,,html-keyboard-response,218,873485,0.0-218.0,"<h1 style=""font-size: 35px;"">PEBBLE<span style=""color: #ff0000; padding-left: 50px; padding-right: 50px;""> ? </span>BOARD</h1>",65,"0,16",0
null,,,html-keyboard-response,219,878237,0.0-219.0,"<h1 style=""font-size: 35px"">MUMMY</h1><h1 style=""font-size: 35px; margin-top: 45px;"">MARINE</h1>",null,,
2768.18,,,html-keyboard-response,220,881757,0.0-220.0,"<h1 style=""font-size: 35px;"">COIN<span style=""color: #ff0000; padding-left: 50px; padding-right: 50px;""> ? </span>PALACE</h1>",76,"68,many",1
null,,,html-keyboard-response,221,886518,0.0-221.0,"<h1 style=""font-size: 35px"">REPORT</h1><h1 style=""font-size: 35px; margin-top: 45px;"">PAPER</h1>",null,,
1155.05,,,html-keyboard-response,222,888429,0.0-222.0,"<h1 style=""font-size: 35px;"">MUMMY<span style=""color: #ff0000; padding-left: 50px; padding-right: 50px;""> ? </span>CROSS</h1>",65,"2,68",0