rt,responses,type,trial_type,trial_index,time_elapsed,internal_node_id,stimulus,key_press,comparison_type,correct_side
8772,"{""name"":""Hokua_real""}",NAME,survey-html-form,0,8780,0.0-0.0-0.0,,,,
6251,,,html-keyboard-response,1,15238,0.0-1.0,Welcome to the <strong>Judgment of Recency</strong> experiment! <p>Press the Space Bar to see the instructions.</p>,32,,
27592,,,html-keyboard-response,2,43033,0.0-2.0,"<p>In this experiment, you will encounter a number of study and question cards.<p>The <strong>study cards</strong> will have two words on it. Take note of these words; you will be asked to judge how recently you have seen them. You will have four seconds to look at the study card.</p><p>The <strong>question cards</strong> will also show you two words (with a red question mark between the words to show that it is a question card). When you encounter a question card, indicate which of the two words shown have been seen on a study card most recently. If a word has not been seen on a study card yet, treat the word as if it occurred a very long time ago. You will indicate which word occurred most recently with the ‘A’ key for the word on the left side and the ‘L’ key for the word on the right side.</p><p>Each word will be seen at most twice: once on a study card and once on a question card.</p><p>Press the Space Bar to begin.</p>",32,,
null,,,html-keyboard-response,3,47785,0.0-3.0,"<h1 style=""font-size: 35px"">FRAME</h1><h1 style=""font-size: 35px; margin-top: 45px;"">BEEF</h1>",null,,
null,,,html-keyboard-response,4,52539,0.0-4.0,"<h1 style=""font-size: 35px"">TROMBONE</h1><h1 style=""font-size: 35px; margin-top: 45px;"">APPLE</h1>",null,,
null,,,html-keyboard-response,5,57294,0.0-5.0,"<h1 style=""font-size: 35px"">AUTHOR</h1><h1 style=""font-size: 35px; margin-top: 45px;"">GARDEN</h1>",null,,
null,,,html-keyboard-response,6,62049,0.0-6.0,"<h1 style=""font-size: 35px"">CHIPMUNK</h1><h1 style=""font-size: 35px; margin-top: 45px;"">IGLOO</h1>",null,,
null,,,html-keyboard-response,7,66807,0.0-7.0,"<h1 style=""font-size: 35px"">INFANT</h1><h1 style=""font-size: 35px; margin-top: 45px;"">SWORD</h1>",null,,
null,,,html-keyboard-response,8,71561,0.0-8.0,"<h1 style=""font-size: 35px"">TRUCK</h1><h1 style=""font-size: 35px; margin-top: 45px;"">TWEEZERS</h1>",null,,
null,,,html-keyboard-response,9,76315,0.0-9.0,"<h1 style=""font-size: 35px"">COUNTRY</h1><h1 style=""font-size: 35px; margin-top: 45px;"">SKILLET</h1>",null,,
2698,,,html-keyboard-response,10,79766,0.0-10.0,"<h1 style=""font-size: 35px;"">CROWN<span style=""color: #ff0000; padding-left: 50px; padding-right: 50px;""> ? </span>IGLOO</h1>",65,,
null,,,html-keyboard-response,11,84523,0.0-11.0,"<h1 style=""font-size: 35px"">CABIN</h1><h1 style=""font-size: 35px; margin-top: 45px;"">BOARD</h1>",null,,
10098,,,html-keyboard-response,12,95374,0.0-12.0,"<h1 style=""font-size: 35px;"">TROMBONE<span style=""color: #ff0000; padding-left: 50px; padding-right: 50px;""> ? </span>CHIPMUNK</h1>",76,,
null,,,html-keyboard-response,13,100131,0.0-13.0,"<h1 style=""font-size: 35px"">COUNTY</h1><h1 style=""font-size: 35px; margin-top: 45px;"">ISLAND</h1>",null,,
1716,,,html-keyboard-response,14,102598,0.0-14.0,"<h1 style=""font-size: 35px;"">SKILLET<span style=""color: #ff0000; padding-left: 50px; padding-right: 50px;""> ? </span>TWEEZERS</h1>",76,,
null,,,html-keyboard-response,15,107355,0.0-15.0,"<h1 style=""font-size: 35px"">WHISKERS</h1><h1 style=""font-size: 35px; margin-top: 45px;"">WITNESS</h1>",null,,
1504,,,html-keyboard-response,16,109612,0.0-16.0,"<h1 style=""font-size: 35px;"">SWORD<span style=""color: #ff0000; padding-left: 50px; padding-right: 50px;""> ? </span>PLIERS</h1>",76,,
null,,,html-keyboard-response,17,114364,0.0-17.0,"<h1 style=""font-size: 35px"">RUST</h1><h1 style=""font-size: 35px; margin-top: 45px;"">RAZOR</h1>",null,,
2293,,,html-keyboard-response,18,117411,0.0-18.0,"<h1 style=""font-size: 35px;"">TRUCK<span style=""color: #ff0000; padding-left: 50px; padding-right: 50px;""> ? </span>ISLAND</h1>",76,,
null,,,html-keyboard-response,19,122168,0.0-19.0,"<h1 style=""font-size: 35px"">VIRUS</h1><h1 style=""font-size: 35px; margin-top: 45px;"">SPHINX</h1>",null,,
940,,,html-keyboard-response,20,123861,0.0-20.0,"<h1 style=""font-size: 35px;"">RUST<span style=""color: #ff0000; padding-left: 50px; padding-right: 50px;""> ? </span>INFANT</h1>",65,,
null,,,html-keyboard-response,21,128614,0.0-21.0,"<h1 style=""font-size: 35px"">PORK</h1><h1 style=""font-size: 35px; margin-top: 45px;"">GOBLIN</h1>",null,,
814,,,html-keyboard-response,22,130180,0.0-22.0,"<h1 style=""font-size: 35px;"">APPLE<span style=""color: #ff0000; padding-left: 50px; padding-right: 50px;""> ? </span>GOBLIN</h1>",76,,
null,,,html-keyboard-response,23,134936,0.0-23.0,"<h1 style=""font-size: 35px"">SLUG</h1><h1 style=""font-size: 35px; margin-top: 45px;"">BURGLAR</h1>",null,,
1834,,,html-keyboard-response,24,137523,0.0-24.0,"<h1 style=""font-size: 35px;"">HIKER<span style=""color: #ff0000; padding-left: 50px; padding-right: 50px;""> ? </span>BOARD</h1>",76,,
null,,,html-keyboard-response,25,142277,0.0-25.0,"<h1 style=""font-size: 35px"">FREEZER</h1><h1 style=""font-size: 35px; margin-top: 45px;"">TART</h1>",null,,
2036,,,html-keyboard-response,26,145067,0.0-26.0,"<h1 style=""font-size: 35px;"">CABIN<span style=""color: #ff0000; padding-left: 50px; padding-right: 50px;""> ? </span>TART</h1>",76,,
null,,,html-keyboard-response,27,149822,0.0-27.0,"<h1 style=""font-size: 35px"">CRAB</h1><h1 style=""font-size: 35px; margin-top: 45px;"">STICKER</h1>",null,,
3405,,,html-keyboard-response,28,153978,0.0-28.0,"<h1 style=""font-size: 35px;"">FRAME<span style=""color: #ff0000; padding-left: 50px; padding-right: 50px;""> ? </span>FREEZER</h1>",76,,
null,,,html-keyboard-response,29,158733,0.0-29.0,"<h1 style=""font-size: 35px"">CONCERT</h1><h1 style=""font-size: 35px; margin-top: 45px;"">DRINK</h1>",null,,
2512,,,html-keyboard-response,30,161996,0.0-30.0,"<h1 style=""font-size: 35px;"">STICKER<span style=""color: #ff0000; padding-left: 50px; padding-right: 50px;""> ? </span>COWBOY</h1>",76,,
null,,,html-keyboard-response,31,166751,0.0-31.0,"<h1 style=""font-size: 35px"">SALT</h1><h1 style=""font-size: 35px; margin-top: 45px;"">WORLD</h1>",null,,
2441,,,html-keyboard-response,32,169943,0.0-32.0,"<h1 style=""font-size: 35px;"">WITNESS<span style=""color: #ff0000; padding-left: 50px; padding-right: 50px;""> ? </span>AUTHOR</h1>",65,,
null,,,html-keyboard-response,33,174695,0.0-33.0,"<h1 style=""font-size: 35px"">LEOPARD</h1><h1 style=""font-size: 35px; margin-top: 45px;"">LODGE</h1>",null,,
2947,,,html-keyboard-response,34,178395,0.0-34.0,"<h1 style=""font-size: 35px;"">SPHINX<span style=""color: #ff0000; padding-left: 50px; padding-right: 50px;""> ? </span>WHISKERS</h1>",76,,
null,,,html-keyboard-response,35,183146,0.0-35.0,"<h1 style=""font-size: 35px"">LIVER</h1><h1 style=""font-size: 35px; margin-top: 45px;"">MASK</h1>",null,,
1564,,,html-keyboard-response,36,185462,0.0-36.0,"<h1 style=""font-size: 35px;"">PORK<span style=""color: #ff0000; padding-left: 50px; padding-right: 50px;""> ? </span>LIVER</h1>",76,,
null,,,html-keyboard-response,37,190218,0.0-37.0,"<h1 style=""font-size: 35px"">CATTLE</h1><h1 style=""font-size: 35px; margin-top: 45px;"">CREVICE</h1>",null,,
1959,,,html-keyboard-response,38,192930,0.0-38.0,"<h1 style=""font-size: 35px;"">BULLET<span style=""color: #ff0000; padding-left: 50px; padding-right: 50px;""> ? </span>MASK</h1>",76,,
null,,,html-keyboard-response,39,197685,0.0-39.0,"<h1 style=""font-size: 35px"">WASP</h1><h1 style=""font-size: 35px; margin-top: 45px;"">JUGGLER</h1>",null,,
1688,,,html-keyboard-response,40,200124,0.0-40.0,"<h1 style=""font-size: 35px;"">BEEF<span style=""color: #ff0000; padding-left: 50px; padding-right: 50px;""> ? </span>SLUG</h1>",65,,
null,,,html-keyboard-response,41,204881,0.0-41.0,"<h1 style=""font-size: 35px"">SCALPEL</h1><h1 style=""font-size: 35px; margin-top: 45px;"">HEDGE</h1>",null,,
1207,,,html-keyboard-response,42,206840,0.0-42.0,"<h1 style=""font-size: 35px;"">LEOPARD<span style=""color: #ff0000; padding-left: 50px; padding-right: 50px;""> ? </span>WORLD</h1>",65,,
null,,,html-keyboard-response,43,211593,0.0-43.0,"<h1 style=""font-size: 35px"">SALAD</h1><h1 style=""font-size: 35px; margin-top: 45px;"">DRAGON</h1>",null,,
1381,,,html-keyboard-response,44,213727,0.0-44.0,"<h1 style=""font-size: 35px;"">SALAD<span style=""color: #ff0000; padding-left: 50px; padding-right: 50px;""> ? </span>FLASK</h1>",65,,
null,,,html-keyboard-response,45,218481,0.0-45.0,"<h1 style=""font-size: 35px"">SHELTER</h1><h1 style=""font-size: 35px; margin-top: 45px;"">BATHTUB</h1>",null,,
1674,,,html-keyboard-response,46,220907,0.0-46.0,"<h1 style=""font-size: 35px;"">DRINK<span style=""color: #ff0000; padding-left: 50px; padding-right: 50px;""> ? </span>HEDGE</h1>",76,,
null,,,html-keyboard-response,47,225662,0.0-47.0,"<h1 style=""font-size: 35px"">GAZELLE</h1><h1 style=""font-size: 35px; margin-top: 45px;"">FUNGUS</h1>",null,,
926,,,html-keyboard-response,48,227342,0.0-48.0,"<h1 style=""font-size: 35px;"">JUGGLER<span style=""color: #ff0000; padding-left: 50px; padding-right: 50px;""> ? </span>GAZELLE</h1>",76,,
null,,,html-keyboard-response,49,232094,0.0-49.0,"<h1 style=""font-size: 35px"">GRAVEL</h1><h1 style=""font-size: 35px; margin-top: 45px;"">CHAUFFEUR</h1>",null,,
878,,,html-keyboard-response,50,233729,0.0-50.0,"<h1 style=""font-size: 35px;"">CHAUFFEUR<span style=""color: #ff0000; padding-left: 50px; padding-right: 50px;""> ? </span>FUNGUS</h1>",65,,
null,,,html-keyboard-response,51,238483,0.0-51.0,"<h1 style=""font-size: 35px"">CHEST</h1><h1 style=""font-size: 35px; margin-top: 45px;"">NURSE</h1>",null,,
1032,,,html-keyboard-response,52,240265,0.0-52.0,"<h1 style=""font-size: 35px;"">LACE<span style=""color: #ff0000; padding-left: 50px; padding-right: 50px;""> ? </span>CHEST</h1>",76,,
null,,,html-keyboard-response,53,245020,0.0-53.0,"<h1 style=""font-size: 35px"">CLIMBER</h1><h1 style=""font-size: 35px; margin-top: 45px;"">PICTURE</h1>",null,,
753,,,html-keyboard-response,54,246526,0.0-54.0,"<h1 style=""font-size: 35px;"">DRAGON<span style=""color: #ff0000; padding-left: 50px; padding-right: 50px;""> ? </span>PICTURE</h1>",76,,
null,,,html-keyboard-response,55,251278,0.0-55.0,"<h1 style=""font-size: 35px"">LONDON</h1><h1 style=""font-size: 35px; margin-top: 45px;"">KETCHUP</h1>",null,,
749,,,html-keyboard-response,56,252780,0.0-56.0,"<h1 style=""font-size: 35px;"">LONDON<span style=""color: #ff0000; padding-left: 50px; padding-right: 50px;""> ? </span>CATTLE</h1>",65,,
null,,,html-keyboard-response,57,257537,0.0-57.0,"<h1 style=""font-size: 35px"">LABEL</h1><h1 style=""font-size: 35px; margin-top: 45px;"">PRINCESS</h1>",null,,
894,,,html-keyboard-response,58,259186,0.0-58.0,"<h1 style=""font-size: 35px;"">LABEL<span style=""color: #ff0000; padding-left: 50px; padding-right: 50px;""> ? </span>DOUGHNUT</h1>",65,,
null,,,html-keyboard-response,59,263940,0.0-59.0,"<h1 style=""font-size: 35px"">ROD</h1><h1 style=""font-size: 35px; margin-top: 45px;"">DORM</h1>",null,,
1471,,,html-keyboard-response,60,266163,0.0-60.0,"<h1 style=""font-size: 35px;"">CONCERT<span style=""color: #ff0000; padding-left: 50px; padding-right: 50px;""> ? </span>NURSE</h1>",76,,
null,,,html-keyboard-response,61,270921,0.0-61.0,"<h1 style=""font-size: 35px"">LAMP</h1><h1 style=""font-size: 35px; margin-top: 45px;"">OINTMENT</h1>",null,,
1074,,,html-keyboard-response,62,272748,0.0-62.0,"<h1 style=""font-size: 35px;"">KETCHUP<span style=""color: #ff0000; padding-left: 50px; padding-right: 50px;""> ? </span>BATHTUB</h1>",65,,
null,,,html-keyboard-response,63,277503,0.0-63.0,"<h1 style=""font-size: 35px"">HOUND</h1><h1 style=""font-size: 35px; margin-top: 45px;"">FIREMAN</h1>",null,,
770,,,html-keyboard-response,64,279026,0.0-64.0,"<h1 style=""font-size: 35px;"">OINTMENT<span style=""color: #ff0000; padding-left: 50px; padding-right: 50px;""> ? </span>FIREMAN</h1>",76,,
null,,,html-keyboard-response,65,283779,0.0-65.0,"<h1 style=""font-size: 35px"">SUNSET</h1><h1 style=""font-size: 35px; margin-top: 45px;"">COFFEE</h1>",null,,
1088,,,html-keyboard-response,66,285617,0.0-66.0,"<h1 style=""font-size: 35px;"">XEROX<span style=""color: #ff0000; padding-left: 50px; padding-right: 50px;""> ? </span>WASP</h1>",65,,
null,,,html-keyboard-response,67,290370,0.0-67.0,"<h1 style=""font-size: 35px"">ANTLER</h1><h1 style=""font-size: 35px; margin-top: 45px;"">REPORT</h1>",null,,
1519,,,html-keyboard-response,68,292639,0.0-68.0,"<h1 style=""font-size: 35px;"">SUNSET<span style=""color: #ff0000; padding-left: 50px; padding-right: 50px;""> ? </span>HOUND</h1>",65,,
null,,,html-keyboard-response,69,297393,0.0-69.0,"<h1 style=""font-size: 35px"">ICEBERG</h1><h1 style=""font-size: 35px; margin-top: 45px;"">MAILMAN</h1>",null,,
1054,,,html-keyboard-response,70,299201,0.0-70.0,"<h1 style=""font-size: 35px;"">MAILMAN<span style=""color: #ff0000; padding-left: 50px; padding-right: 50px;""> ? </span>DORM</h1>",65,,
null,,,html-keyboard-response,71,303955,0.0-71.0,"<h1 style=""font-size: 35px"">ELBOW</h1><h1 style=""font-size: 35px; margin-top: 45px;"">CANDY</h1>",null,,
1378,,,html-keyboard-response,72,306086,0.0-72.0,"<h1 style=""font-size: 35px;"">ANTLER<span style=""color: #ff0000; padding-left: 50px; padding-right: 50px;""> ? </span>CLAMP</h1>",65,,
null,,,html-keyboard-response,73,310840,0.0-73.0,"<h1 style=""font-size: 35px"">SHELF</h1><h1 style=""font-size: 35px; margin-top: 45px;"">EXPERT</h1>",null,,
2047,,,html-keyboard-response,74,313643,0.0-74.0,"<h1 style=""font-size: 35px;"">PRINCESS<span style=""color: #ff0000; padding-left: 50px; padding-right: 50px;""> ? </span>FEMALE</h1>",65,"16,many",0
null,,,html-keyboard-response,75,318400,0.0-75.0,"<h1 style=""font-size: 35px"">PARSLEY</h1><h1 style=""font-size: 35px; margin-top: 45px;"">WINDOW</h1>",null,,
1046,,,html-keyboard-response,76,320200,0.0-76.0,"<h1 style=""font-size: 35px;"">PARSLEY<span style=""color: #ff0000; padding-left: 50px; padding-right: 50px;""> ? </span>ROD</h1>",65,"0,16",0
null,,,html-keyboard-response,77,324955,0.0-77.0,"<h1 style=""font-size: 35px"">FRAGRANCE</h1><h1 style=""font-size: 35px; margin-top: 45px;"">ZEBRA</h1>",null,,
1947,,,html-keyboard-response,78,327655,0.0-78.0,"<h1 style=""font-size: 35px;"">POISON<span style=""color: #ff0000; padding-left: 50px; padding-right: 50px;""> ? </span>COUNTRY</h1>",76,"68,many",1
null,,,html-keyboard-response,79,332407,0.0-79.0,"<h1 style=""font-size: 35px"">BIKE</h1><h1 style=""font-size: 35px; margin-top: 45px;"">OUTDOORS</h1>",null,,
1688,,,html-keyboard-response,80,334848,0.0-80.0,"<h1 style=""font-size: 35px;"">HORNET<span style=""color: #ff0000; padding-left: 50px; padding-right: 50px;""> ? </span>FRAGRANCE</h1>",76,"2,many",1
null,,,html-keyboard-response,81,339601,0.0-81.0,"<h1 style=""font-size: 35px"">BELLY</h1><h1 style=""font-size: 35px; margin-top: 45px;"">BLADE</h1>",null,,
2151,,,html-keyboard-response,82,342505,0.0-82.0,"<h1 style=""font-size: 35px;"">ZEBRA<span style=""color: #ff0000; padding-left: 50px; padding-right: 50px;""> ? </span>BIKE</h1>",65,"2,4",1
null,,,html-keyboard-response,83,347257,0.0-83.0,"<h1 style=""font-size: 35px"">DRAWING</h1><h1 style=""font-size: 35px; margin-top: 45px;"">TREAT</h1>",null,,
2471,,,html-keyboard-response,84,350483,0.0-84.0,"<h1 style=""font-size: 35px;"">BELLY<span style=""color: #ff0000; padding-left: 50px; padding-right: 50px;""> ? </span>REPORT</h1>",65,"2,16",0
null,,,html-keyboard-response,85,355237,0.0-85.0,"<h1 style=""font-size: 35px"">BANJO</h1><h1 style=""font-size: 35px; margin-top: 45px;"">CHAMPAGNE</h1>",null,,
3121,,,html-keyboard-response,86,359110,0.0-86.0,"<h1 style=""font-size: 35px;"">BLADE<span style=""color: #ff0000; padding-left: 50px; padding-right: 50px;""> ? </span>RAZOR</h1>",65,"4,68",0
null,,,html-keyboard-response,87,363864,0.0-87.0,"<h1 style=""font-size: 35px"">COOK</h1><h1 style=""font-size: 35px; margin-top: 45px;"">SCARF</h1>",null,,
1565,,,html-keyboard-response,88,366184,0.0-88.0,"<h1 style=""font-size: 35px;"">BANJO<span style=""color: #ff0000; padding-left: 50px; padding-right: 50px;""> ? </span>VIRUS</h1>",65,"2,68",0
null,,,html-keyboard-response,89,370939,0.0-89.0,"<h1 style=""font-size: 35px"">DANCER</h1><h1 style=""font-size: 35px; margin-top: 45px;"">RATTLE</h1>",null,,
1534,,,html-keyboard-response,90,373225,0.0-90.0,"<h1 style=""font-size: 35px;"">HUSBAND<span style=""color: #ff0000; padding-left: 50px; padding-right: 50px;""> ? </span>DANCER</h1>",76,"0,many",1
null,,,html-keyboard-response,91,377978,0.0-91.0,"<h1 style=""font-size: 35px"">COMET</h1><h1 style=""font-size: 35px; margin-top: 45px;"">DRUG</h1>",null,,
2474,,,html-keyboard-response,92,381204,0.0-92.0,"<h1 style=""font-size: 35px;"">WINDOW<span style=""color: #ff0000; padding-left: 50px; padding-right: 50px;""> ? </span>BURGLAR</h1>",76,"16,68",0
null,,,html-keyboard-response,93,385959,0.0-93.0,"<h1 style=""font-size: 35px"">CLOCK</h1><h1 style=""font-size: 35px; margin-top: 45px;"">DUST</h1>",null,,
1933,,,html-keyboard-response,94,388645,0.0-94.0,"<h1 style=""font-size: 35px;"">COMET<span style=""color: #ff0000; padding-left: 50px; padding-right: 50px;""> ? </span>CLOCK</h1>",76,"0,2",1
null,,,html-keyboard-response,95,393400,0.0-95.0,"<h1 style=""font-size: 35px"">ORANGE</h1><h1 style=""font-size: 35px; margin-top: 45px;"">GREASE</h1>",null,,
990,,,html-keyboard-response,96,395144,0.0-96.0,"<h1 style=""font-size: 35px;"">ORANGE<span style=""color: #ff0000; padding-left: 50px; padding-right: 50px;""> ? </span>CRAB</h1>",65,"0,68",0
null,,,html-keyboard-response,97,399898,0.0-97.0,"<h1 style=""font-size: 35px"">SNACK</h1><h1 style=""font-size: 35px; margin-top: 45px;"">CAMEL</h1>",null,,
1249,,,html-keyboard-response,98,401900,0.0-98.0,"<h1 style=""font-size: 35px;"">DUST<span style=""color: #ff0000; padding-left: 50px; padding-right: 50px;""> ? </span>ACTRESS</h1>",65,"4,many",0
null,,,html-keyboard-response,99,406655,0.0-99.0,"<h1 style=""font-size: 35px"">CRICKET</h1><h1 style=""font-size: 35px; margin-top: 45px;"">WARDROBE</h1>",null,,
4217,,,html-keyboard-response,100,411625,0.0-100.0,"<h1 style=""font-size: 35px;"">DRAWING<span style=""color: #ff0000; padding-left: 50px; padding-right: 50px;""> ? </span>GREASE</h1>",65,"4,16",1
null,,,html-keyboard-response,101,416381,0.0-101.0,"<h1 style=""font-size: 35px"">BUGGY</h1><h1 style=""font-size: 35px; margin-top: 45px;"">DAUGHTER</h1>",null,,
1048,,,html-keyboard-response,102,418181,0.0-102.0,"<h1 style=""font-size: 35px;"">CAMEL<span style=""color: #ff0000; padding-left: 50px; padding-right: 50px;""> ? </span>BUGGY</h1>",76,"0,4",1
null,,,html-keyboard-response,103,422936,0.0-103.0,"<h1 style=""font-size: 35px"">BUG</h1><h1 style=""font-size: 35px; margin-top: 45px;"">NIGHTGOWN</h1>",null,,
954,,,html-keyboard-response,104,424640,0.0-104.0,"<h1 style=""font-size: 35px;"">LILY<span style=""color: #ff0000; padding-left: 50px; padding-right: 50px;""> ? </span>BUG</h1>",76,"0,many",1
null,,,html-keyboard-response,105,429393,0.0-105.0,"<h1 style=""font-size: 35px"">OUTLAW</h1><h1 style=""font-size: 35px; margin-top: 45px;"">STOMACH</h1>",null,,
814,,,html-keyboard-response,106,430961,0.0-106.0,"<h1 style=""font-size: 35px;"">OUTLAW<span style=""color: #ff0000; padding-left: 50px; padding-right: 50px;""> ? </span>CREVICE</h1>",65,"0,68",0
null,,,html-keyboard-response,107,435713,0.0-107.0,"<h1 style=""font-size: 35px"">VAGRANT</h1><h1 style=""font-size: 35px; margin-top: 45px;"">SUPPER</h1>",null,,
1751,,,html-keyboard-response,108,438217,0.0-108.0,"<h1 style=""font-size: 35px;"">CLOUD<span style=""color: #ff0000; padding-left: 50px; padding-right: 50px;""> ? </span>DRUG</h1>",65,"16,many",1
null,,,html-keyboard-response,109,442972,0.0-109.0,"<h1 style=""font-size: 35px"">BARLEY</h1><h1 style=""font-size: 35px; margin-top: 45px;"">PADDING</h1>",null,,
1789,,,html-keyboard-response,110,445515,0.0-110.0,"<h1 style=""font-size: 35px;"">SCALPEL<span style=""color: #ff0000; padding-left: 50px; padding-right: 50px;""> ? </span>PEACH</h1>",65,"68,many",0
null,,,html-keyboard-response,111,450271,0.0-111.0,"<h1 style=""font-size: 35px"">SUNRISE</h1><h1 style=""font-size: 35px; margin-top: 45px;"">POLICE</h1>",null,,
1544,,,html-keyboard-response,112,452568,0.0-112.0,"<h1 style=""font-size: 35px;"">PLAYGROUND<span style=""color: #ff0000; padding-left: 50px; padding-right: 50px;""> ? </span>VAGRANT</h1>",76,"4,many",1
null,,,html-keyboard-response,113,457323,0.0-113.0,"<h1 style=""font-size: 35px"">POSSUM</h1><h1 style=""font-size: 35px; margin-top: 45px;"">POET</h1>",null,,
5098,,,html-keyboard-response,114,463171,0.0-114.0,"<h1 style=""font-size: 35px;"">SHELTER<span style=""color: #ff0000; padding-left: 50px; padding-right: 50px;""> ? </span>BARLEY</h1>",65,"4,68",1
null,,,html-keyboard-response,115,467924,0.0-115.0,"<h1 style=""font-size: 35px"">MUSTARD</h1><h1 style=""font-size: 35px; margin-top: 45px;"">GYMNAST</h1>",null,,
1192,,,html-keyboard-response,116,469868,0.0-116.0,"<h1 style=""font-size: 35px;"">MUSTARD<span style=""color: #ff0000; padding-left: 50px; padding-right: 50px;""> ? </span>POSSUM</h1>",65,"0,2",0
null,,,html-keyboard-response,117,474623,0.0-117.0,"<h1 style=""font-size: 35px"">PAPER</h1><h1 style=""font-size: 35px; margin-top: 45px;"">HEADBAND</h1>",null,,
2180,,,html-keyboard-response,118,477555,0.0-118.0,"<h1 style=""font-size: 35px;"">POET<span style=""color: #ff0000; padding-left: 50px; padding-right: 50px;""> ? </span>DAUGHTER</h1>",65,"4,16",0
null,,,html-keyboard-response,119,482308,0.0-119.0,"<h1 style=""font-size: 35px"">BRICK</h1><h1 style=""font-size: 35px; margin-top: 45px;"">KIDNEY</h1>",null,,
2690,,,html-keyboard-response,120,485751,0.0-120.0,"<h1 style=""font-size: 35px;"">PAPER<span style=""color: #ff0000; padding-left: 50px; padding-right: 50px;""> ? </span>GYMNAST</h1>",76,"2,4",0
null,,,html-keyboard-response,121,490503,0.0-121.0,"<h1 style=""font-size: 35px"">BALLOON</h1><h1 style=""font-size: 35px; margin-top: 45px;"">EYELASH</h1>",null,,
6455,,,html-keyboard-response,122,497709,0.0-122.0,"<h1 style=""font-size: 35px;"">CLIMBER<span style=""color: #ff0000; padding-left: 50px; padding-right: 50px;""> ? </span>STOMACH</h1>",76,"16,68",1
null,,,html-keyboard-response,123,502461,0.0-123.0,"<h1 style=""font-size: 35px"">SAUSAGE</h1><h1 style=""font-size: 35px; margin-top: 45px;"">CROSS</h1>",null,,
1577,,,html-keyboard-response,124,504792,0.0-124.0,"<h1 style=""font-size: 35px;"">BALLOON<span style=""color: #ff0000; padding-left: 50px; padding-right: 50px;""> ? </span>PORTRAIT</h1>",65,"2,many",0
null,,,html-keyboard-response,125,509548,0.0-125.0,"<h1 style=""font-size: 35px"">PRINCE</h1><h1 style=""font-size: 35px; margin-top: 45px;"">SPIDER</h1>",null,,
805,,,html-keyboard-response,126,511105,0.0-126.0,"<h1 style=""font-size: 35px;"">PADDING<span style=""color: #ff0000; padding-left: 50px; padding-right: 50px;""> ? </span>PRINCE</h1>",76,"0,16",1
null,,,html-keyboard-response,127,515862,0.0-127.0,"<h1 style=""font-size: 35px"">FIDDLE</h1><h1 style=""font-size: 35px; margin-top: 45px;"">SUITCASE</h1>",null,,
3896,,,html-keyboard-response,128,520511,0.0-128.0,"<h1 style=""font-size: 35px;"">SPIDER<span style=""color: #ff0000; padding-left: 50px; padding-right: 50px;""> ? </span>SUNRISE</h1>",65,"2,16",0
null,,,html-keyboard-response,129,525264,0.0-129.0,"<h1 style=""font-size: 35px"">SLOPE</h1><h1 style=""font-size: 35px; margin-top: 45px;"">NECKLACE</h1>",null,,
6695,,,html-keyboard-response,130,532715,0.0-130.0,"<h1 style=""font-size: 35px;"">LAMP<span style=""color: #ff0000; padding-left: 50px; padding-right: 50px;""> ? </span>FIDDLE</h1>",76,"2,68",1
null,,,html-keyboard-response,131,537470,0.0-131.0,"<h1 style=""font-size: 35px"">SLIME</h1><h1 style=""font-size: 35px; margin-top: 45px;"">SILK</h1>",null,,
936,,,html-keyboard-response,132,539158,0.0-132.0,"<h1 style=""font-size: 35px;"">SUITCASE<span style=""color: #ff0000; padding-left: 50px; padding-right: 50px;""> ? </span>SLIME</h1>",76,"0,4",1
null,,,html-keyboard-response,133,543912,0.0-133.0,"<h1 style=""font-size: 35px"">HELMET</h1><h1 style=""font-size: 35px; margin-top: 45px;"">BOUQUET</h1>",null,,
2722,,,html-keyboard-response,134,547387,0.0-134.0,"<h1 style=""font-size: 35px;"">SILK<span style=""color: #ff0000; padding-left: 50px; padding-right: 50px;""> ? </span>SLOPE</h1>",76,"2,4",0
null,,,html-keyboard-response,135,552141,0.0-135.0,"<h1 style=""font-size: 35px"">OX</h1><h1 style=""font-size: 35px; margin-top: 45px;"">CANYON</h1>",null,,
741,,,html-keyboard-response,136,553635,0.0-136.0,"<h1 style=""font-size: 35px;"">OX<span style=""color: #ff0000; padding-left: 50px; padding-right: 50px;""> ? </span>ULCER</h1>",65,"0,many",0
null,,,html-keyboard-response,137,558389,0.0-137.0,"<h1 style=""font-size: 35px"">HATCHET</h1><h1 style=""font-size: 35px; margin-top: 45px;"">GUARD</h1>",null,,
780,,,html-keyboard-response,138,559919,0.0-138.0,"<h1 style=""font-size: 35px;"">HATCHET<span style=""color: #ff0000; padding-left: 50px; padding-right: 50px;""> ? </span>EYELASH</h1>",65,"0,16",0
null,,,html-keyboard-response,139,564672,0.0-139.0,"<h1 style=""font-size: 35px"">GHETTO</h1><h1 style=""font-size: 35px; margin-top: 45px;"">FLESH</h1>",null,,
3473,,,html-keyboard-response,140,568898,0.0-140.0,"<h1 style=""font-size: 35px;"">GUARD<span style=""color: #ff0000; padding-left: 50px; padding-right: 50px;""> ? </span>SAUSAGE</h1>",76,"2,16",0
null,,,html-keyboard-response,141,573654,0.0-141.0,"<h1 style=""font-size: 35px"">SALMON</h1><h1 style=""font-size: 35px; margin-top: 45px;"">SPARROW</h1>",null,,
863,,,html-keyboard-response,142,575270,0.0-142.0,"<h1 style=""font-size: 35px;"">GHETTO<span style=""color: #ff0000; padding-left: 50px; padding-right: 50px;""> ? </span>SALMON</h1>",76,"0,2",1
null,,,html-keyboard-response,143,580024,0.0-143.0,"<h1 style=""font-size: 35px"">BOX</h1><h1 style=""font-size: 35px; margin-top: 45px;"">OZONE</h1>",null,,
1213,,,html-keyboard-response,144,581988,0.0-144.0,"<h1 style=""font-size: 35px;"">BUNNY<span style=""color: #ff0000; padding-left: 50px; padding-right: 50px;""> ? </span>SPARROW</h1>",76,"2,many",1
null,,,html-keyboard-response,145,586744,0.0-145.0,"<h1 style=""font-size: 35px"">MACHINE</h1><h1 style=""font-size: 35px; margin-top: 45px;"">SODA</h1>",null,,
917,,,html-keyboard-response,146,588413,0.0-146.0,"<h1 style=""font-size: 35px;"">BOX<span style=""color: #ff0000; padding-left: 50px; padding-right: 50px;""> ? </span>GLOVE</h1>",65,"4,many",0
null,,,html-keyboard-response,147,593167,0.0-147.0,"<h1 style=""font-size: 35px"">STAR</h1><h1 style=""font-size: 35px; margin-top: 45px;"">SWAMP</h1>",null,,
1610,,,html-keyboard-response,148,595528,0.0-148.0,"<h1 style=""font-size: 35px;"">OUTDOORS<span style=""color: #ff0000; padding-left: 50px; padding-right: 50px;""> ? </span>STAR</h1>",76,"0,68",1
null,,,html-keyboard-response,149,600285,0.0-149.0,"<h1 style=""font-size: 35px"">PLAZA</h1><h1 style=""font-size: 35px; margin-top: 45px;"">GUITAR</h1>",null,,
2641,,,html-keyboard-response,150,603678,0.0-150.0,"<h1 style=""font-size: 35px;"">HELMET<span style=""color: #ff0000; padding-left: 50px; padding-right: 50px;""> ? </span>TRIBE</h1>",76,"16,many",0
null,,,html-keyboard-response,151,608431,0.0-151.0,"<h1 style=""font-size: 35px"">PERMIT</h1><h1 style=""font-size: 35px; margin-top: 45px;"">PARENT</h1>",null,,
1664,,,html-keyboard-response,152,610848,0.0-152.0,"<h1 style=""font-size: 35px;"">TREAT<span style=""color: #ff0000; padding-left: 50px; padding-right: 50px;""> ? </span>CANYON</h1>",76,"16,68",1
null,,,html-keyboard-response,153,615600,0.0-153.0,"<h1 style=""font-size: 35px"">CASKET</h1><h1 style=""font-size: 35px; margin-top: 45px;"">PIANO</h1>",null,,
1901,,,html-keyboard-response,154,618253,0.0-154.0,"<h1 style=""font-size: 35px;"">PLAZA<span style=""color: #ff0000; padding-left: 50px; padding-right: 50px;""> ? </span>CASKET</h1>",76,"0,4",1
null,,,html-keyboard-response,155,623008,0.0-155.0,"<h1 style=""font-size: 35px"">LOVER</h1><h1 style=""font-size: 35px; margin-top: 45px;"">LADY</h1>",null,,
6662,,,html-keyboard-response,156,630421,0.0-156.0,"<h1 style=""font-size: 35px;"">COOK<span style=""color: #ff0000; padding-left: 50px; padding-right: 50px;""> ? </span>SKETCH</h1>",76,"68,many",0
null,,,html-keyboard-response,157,635176,0.0-157.0,"<h1 style=""font-size: 35px"">BANKER</h1><h1 style=""font-size: 35px; margin-top: 45px;"">YOLK</h1>",null,,
2851,,,html-keyboard-response,158,638778,0.0-158.0,"<h1 style=""font-size: 35px;"">LOVER<span style=""color: #ff0000; padding-left: 50px; padding-right: 50px;""> ? </span>RATTLE</h1>",65,"2,68",0
null,,,html-keyboard-response,159,643532,0.0-159.0,"<h1 style=""font-size: 35px"">COSTUME</h1><h1 style=""font-size: 35px; margin-top: 45px;"">SEAFOOD</h1>",null,,
1570,,,html-keyboard-response,160,645855,0.0-160.0,"<h1 style=""font-size: 35px;"">SNACK<span style=""color: #ff0000; padding-left: 50px; padding-right: 50px;""> ? </span>LADY</h1>",76,"4,68",1
null,,,html-keyboard-response,161,650610,0.0-161.0,"<h1 style=""font-size: 35px"">STAPLE</h1><h1 style=""font-size: 35px; margin-top: 45px;"">GLASS</h1>",null,,
1054,,,html-keyboard-response,162,652416,0.0-162.0,"<h1 style=""font-size: 35px;"">YOLK<span style=""color: #ff0000; padding-left: 50px; padding-right: 50px;""> ? </span>MACHINE</h1>",65,"4,16",0
null,,,html-keyboard-response,163,657171,0.0-163.0,"<h1 style=""font-size: 35px"">BADGE</h1><h1 style=""font-size: 35px; margin-top: 45px;"">DUSTPAN</h1>",null,,
3317,,,html-keyboard-response,164,661239,0.0-164.0,"<h1 style=""font-size: 35px;"">SWAMP<span style=""color: #ff0000; padding-left: 50px; padding-right: 50px;""> ? </span>COSTUME</h1>",65,"4,16",1
null,,,html-keyboard-response,165,665995,0.0-165.0,"<h1 style=""font-size: 35px"">LION</h1><h1 style=""font-size: 35px; margin-top: 45px;"">STONE</h1>",null,,
5923,,,html-keyboard-response,166,672675,0.0-166.0,"<h1 style=""font-size: 35px;"">GUITAR<span style=""color: #ff0000; padding-left: 50px; padding-right: 50px;""> ? </span>LION</h1>",76,"0,16",1
null,,,html-keyboard-response,167,677428,0.0-167.0,"<h1 style=""font-size: 35px"">CANAL</h1><h1 style=""font-size: 35px; margin-top: 45px;"">HANDBAG</h1>",null,,
2687,,,html-keyboard-response,168,680868,0.0-168.0,"<h1 style=""font-size: 35px;"">CRICKET<span style=""color: #ff0000; padding-left: 50px; padding-right: 50px;""> ? </span>BADGE</h1>",76,"4,68",1
null,,,html-keyboard-response,169,685627,0.0-169.0,"<h1 style=""font-size: 35px"">ITEM</h1><h1 style=""font-size: 35px; margin-top: 45px;"">PARTNER</h1>",null,,
1543,,,html-keyboard-response,170,687925,0.0-170.0,"<h1 style=""font-size: 35px;"">CANAL<span style=""color: #ff0000; padding-left: 50px; padding-right: 50px;""> ? </span>ITEM</h1>",76,"0,2",1
null,,,html-keyboard-response,171,692678,0.0-171.0,"<h1 style=""font-size: 35px"">RADISH</h1><h1 style=""font-size: 35px; margin-top: 45px;"">DIVER</h1>",null,,
1083,,,html-keyboard-response,172,694514,0.0-172.0,"<h1 style=""font-size: 35px;"">RADISH<span style=""color: #ff0000; padding-left: 50px; padding-right: 50px;""> ? </span>NIGHTGOWN</h1>",65,"0,68",0
null,,,html-keyboard-response,173,699267,0.0-173.0,"<h1 style=""font-size: 35px"">FLUTE</h1><h1 style=""font-size: 35px; margin-top: 45px;"">ARMY</h1>",null,,
5486,,,html-keyboard-response,174,705506,0.0-174.0,"<h1 style=""font-size: 35px;"">DIVER<span style=""color: #ff0000; padding-left: 50px; padding-right: 50px;""> ? </span>MUMMY</h1>",65,"2,many",0
null,,,html-keyboard-response,175,710260,0.0-175.0,"<h1 style=""font-size: 35px"">STAMP</h1><h1 style=""font-size: 35px; margin-top: 45px;"">RACKET</h1>",null,,
1328,,,html-keyboard-response,176,712339,0.0-176.0,"<h1 style=""font-size: 35px;"">FLUTE<span style=""color: #ff0000; padding-left: 50px; padding-right: 50px;""> ? </span>SEAFOOD</h1>",65,"2,16",0
null,,,html-keyboard-response,177,717095,0.0-177.0,"<h1 style=""font-size: 35px"">TEMPLE</h1><h1 style=""font-size: 35px; margin-top: 45px;"">DRIVER</h1>",null,,
3887,,,html-keyboard-response,178,721734,0.0-178.0,"<h1 style=""font-size: 35px;"">HAWK<span style=""color: #ff0000; padding-left: 50px; padding-right: 50px;""> ? </span>ARMY</h1>",65,"4,many",1
null,,,html-keyboard-response,179,726489,0.0-179.0,"<h1 style=""font-size: 35px"">COD</h1><h1 style=""font-size: 35px; margin-top: 45px;"">POSTAGE</h1>",null,,
1797,,,html-keyboard-response,180,729039,0.0-180.0,"<h1 style=""font-size: 35px;"">POLICE<span style=""color: #ff0000; padding-left: 50px; padding-right: 50px;""> ? </span>KLEENEX</h1>",65,"68,many",0
null,,,html-keyboard-response,181,733796,0.0-181.0,"<h1 style=""font-size: 35px"">PLAID</h1><h1 style=""font-size: 35px; margin-top: 45px;"">TURKEY</h1>",null,,
3924,,,html-keyboard-response,182,738475,0.0-182.0,"<h1 style=""font-size: 35px;"">LADDER<span style=""color: #ff0000; padding-left: 50px; padding-right: 50px;""> ? </span>STONE</h1>",76,"16,many",1
null,,,html-keyboard-response,183,743228,0.0-183.0,"<h1 style=""font-size: 35px"">LETTUCE</h1><h1 style=""font-size: 35px; margin-top: 45px;"">FOOTBALL</h1>",null,,
1534,,,html-keyboard-response,184,745512,0.0-184.0,"<h1 style=""font-size: 35px;"">COD<span style=""color: #ff0000; padding-left: 50px; padding-right: 50px;""> ? </span>LETTUCE</h1>",76,"0,4",1
null,,,html-keyboard-response,185,750268,0.0-185.0,"<h1 style=""font-size: 35px"">TUBA</h1><h1 style=""font-size: 35px; margin-top: 45px;"">ARM</h1>",null,,
2111,,,html-keyboard-response,186,753130,0.0-186.0,"<h1 style=""font-size: 35px;"">HEADBAND<span style=""color: #ff0000; padding-left: 50px; padding-right: 50px;""> ? </span>FOOTBALL</h1>",76,"2,68",1
null,,,html-keyboard-response,187,757883,0.0-187.0,"<h1 style=""font-size: 35px"">YARN</h1><h1 style=""font-size: 35px; margin-top: 45px;"">COIN</h1>",null,,
1706,,,html-keyboard-response,188,760340,0.0-188.0,"<h1 style=""font-size: 35px;"">TUBA<span style=""color: #ff0000; padding-left: 50px; padding-right: 50px;""> ? </span>ARM</h1>",65,"2,4",1
null,,,html-keyboard-response,189,765093,0.0-189.0,"<h1 style=""font-size: 35px"">FLAG</h1><h1 style=""font-size: 35px; margin-top: 45px;"">CASHIER</h1>",null,,
8080,,,html-keyboard-response,190,773926,0.0-190.0,"<h1 style=""font-size: 35px;"">LAKE<span style=""color: #ff0000; padding-left: 50px; padding-right: 50px;""> ? </span>FLAG</h1>",76,"0,many",1
null,,,html-keyboard-response,191,778679,0.0-191.0,"<h1 style=""font-size: 35px"">PASSAGE</h1><h1 style=""font-size: 35px; margin-top: 45px;"">MEAT</h1>",null,,
3230,,,html-keyboard-response,192,782660,0.0-192.0,"<h1 style=""font-size: 35px;"">CROSS<span style=""color: #ff0000; padding-left: 50px; padding-right: 50px;""> ? </span>RACKET</h1>",76,"16,68",1
null,,,html-keyboard-response,193,787413,0.0-193.0,"<h1 style=""font-size: 35px"">BUTCHER</h1><h1 style=""font-size: 35px; margin-top: 45px;"">BREAST</h1>",null,,
20831,,,html-keyboard-response,194,808995,0.0-194.0,"<h1 style=""font-size: 35px;"">DRIVER<span style=""color: #ff0000; padding-left: 50px; padding-right: 50px;""> ? </span>PASSAGE</h1>",65,"2,16",1
null,,,html-keyboard-response,195,813749,0.0-195.0,"<h1 style=""font-size: 35px"">LUMBER</h1><h1 style=""font-size: 35px; margin-top: 45px;"">WASHER</h1>",null,,
2900,,,html-keyboard-response,196,817400,0.0-196.0,"<h1 style=""font-size: 35px;"">MEAT<span style=""color: #ff0000; padding-left: 50px; padding-right: 50px;""> ? </span>BUTCHER</h1>",76,"2,4",1
null,,,html-keyboard-response,197,822154,0.0-197.0,"<h1 style=""font-size: 35px"">MUFFIN</h1><h1 style=""font-size: 35px; margin-top: 45px;"">BISON</h1>",null,,
1017,,,html-keyboard-response,198,823923,0.0-198.0,"<h1 style=""font-size: 35px;"">PLAID<span style=""color: #ff0000; padding-left: 50px; padding-right: 50px;""> ? </span>NECKLACE</h1>",65,"16,68",0
null,,,html-keyboard-response,199,828681,0.0-199.0,"<h1 style=""font-size: 35px"">GRIZZLY</h1><h1 style=""font-size: 35px; margin-top: 45px;"">MARSH</h1>",null,,
1000,,,html-keyboard-response,200,830432,0.0-200.0,"<h1 style=""font-size: 35px;"">LUMBER<span style=""color: #ff0000; padding-left: 50px; padding-right: 50px;""> ? </span>GRIZZLY</h1>",76,"0,4",1
null,,,html-keyboard-response,201,835186,0.0-201.0,"<h1 style=""font-size: 35px"">BANQUET</h1><h1 style=""font-size: 35px; margin-top: 45px;"">FRIEND</h1>",null,,
2091,,,html-keyboard-response,202,838029,0.0-202.0,"<h1 style=""font-size: 35px;"">BOUQUET<span style=""color: #ff0000; padding-left: 50px; padding-right: 50px;""> ? </span>MUFFIN</h1>",76,"4,68",1
null,,,html-keyboard-response,203,842784,0.0-203.0,"<h1 style=""font-size: 35px"">ACTOR</h1><h1 style=""font-size: 35px; margin-top: 45px;"">FLASHLIGHT</h1>",null,,
2131,,,html-keyboard-response,204,845666,0.0-204.0,"<h1 style=""font-size: 35px;"">BANK<span style=""color: #ff0000; padding-left: 50px; padding-right: 50px;""> ? </span>COIN</h1>",76,"16,many",1
null,,,html-keyboard-response,205,850418,0.0-205.0,"<h1 style=""font-size: 35px"">OUTFIT</h1><h1 style=""font-size: 35px; margin-top: 45px;"">SCALLOP</h1>",null,,
1548,,,html-keyboard-response,206,852717,0.0-206.0,"<h1 style=""font-size: 35px;"">POCKET<span style=""color: #ff0000; padding-left: 50px; padding-right: 50px;""> ? </span>BANQUET</h1>",76,"4,many",1
null,,,html-keyboard-response,207,857472,0.0-207.0,"<h1 style=""font-size: 35px"">CUSTARD</h1><h1 style=""font-size: 35px; margin-top: 45px;"">GANGSTER</h1>",null,,
1711,,,html-keyboard-response,208,859936,0.0-208.0,"<h1 style=""font-size: 35px;"">OUTFIT<span style=""color: #ff0000; padding-left: 50px; padding-right: 50px;""> ? </span>CUSTARD</h1>",76,"0,2",1
null,,,html-keyboard-response,209,864692,0.0-209.0,"<h1 style=""font-size: 35px"">INMATE</h1><h1 style=""font-size: 35px; margin-top: 45px;"">LIGHTNING</h1>",null,,
1160,,,html-keyboard-response,210,866605,0.0-210.0,"<h1 style=""font-size: 35px;"">SCALLOP<span style=""color: #ff0000; padding-left: 50px; padding-right: 50px;""> ? </span>BREAST</h1>",65,"4,16",0
null,,,html-keyboard-response,211,871359,0.0-211.0,"<h1 style=""font-size: 35px"">PUDDLE</h1><h1 style=""font-size: 35px; margin-top: 45px;"">TOMBSTONE</h1>",null,,
8239,,,html-keyboard-response,212,880351,0.0-212.0,"<h1 style=""font-size: 35px;"">INMATE<span style=""color: #ff0000; padding-left: 50px; padding-right: 50px;""> ? </span>VIKING</h1>",76,"2,many",0
null,,,html-keyboard-response,213,885106,0.0-213.0,"<h1 style=""font-size: 35px"">CAPTIVE</h1><h1 style=""font-size: 35px; margin-top: 45px;"">FOX</h1>",null,,
730,,,html-keyboard-response,214,886586,0.0-214.0,"<h1 style=""font-size: 35px;"">CAPTIVE<span style=""color: #ff0000; padding-left: 50px; padding-right: 50px;""> ? </span>SODA</h1>",65,"0,68",0
null,,,html-keyboard-response,215,891342,0.0-215.0,"<h1 style=""font-size: 35px"">SLIDE</h1><h1 style=""font-size: 35px; margin-top: 45px;"">SWIMMER</h1>",null,,
741,,,html-keyboard-response,216,892836,0.0-216.0,"<h1 style=""font-size: 35px;"">SLIDE<span style=""color: #ff0000; padding-left: 50px; padding-right: 50px;""> ? </span>WRENCH</h1>",65,"0,many",0
null,,,html-keyboard-response,217,897591,0.0-217.0,"<h1 style=""font-size: 35px"">HARP</h1><h1 style=""font-size: 35px; margin-top: 45px;"">CARROT</h1>",null,,
831,,,html-keyboard-response,218,899173,0.0-218.0,"<h1 style=""font-size: 35px;"">HARP<span style=""color: #ff0000; padding-left: 50px; padding-right: 50px;""> ? </span>FRIEND</h1>",65,"0,16",0
null,,,html-keyboard-response,219,903927,0.0-219.0,"<h1 style=""font-size: 35px"">QUARTER</h1><h1 style=""font-size: 35px; margin-top: 45px;"">DRESSER</h1>",null,,
1375,,,html-keyboard-response,220,906053,0.0-220.0,"<h1 style=""font-size: 35px;"">FRIAR<span style=""color: #ff0000; padding-left: 50px; padding-right: 50px;""> ? </span>PERMIT</h1>",76,"68,many",1
null,,,html-keyboard-response,221,910807,0.0-221.0,"<h1 style=""font-size: 35px"">TYPIST</h1><h1 style=""font-size: 35px; margin-top: 45px;"">THREAD</h1>",null,,
2944,,,html-keyboard-response,222,914503,0.0-222.0,"<h1 style=""font-size: 35px;"">QUARTER<span style=""color: #ff0000; padding-left: 50px; padding-right: 50px;""> ? </span>PIANO</h1>",65,"2,68",0
3352.82,"{""name"":""Deepti""}",NAME,survey-html-form,0,3358,0.0-0.0-0.0,,,,
93801.855,,,html-keyboard-response,1,97362,0.0-1.0,Welcome to the <strong>Judgment of Recency</strong> experiment! <p>Press the Space Bar to see the instructions.</p>,32,,
24955.165,,,html-keyboard-response,2,122528,0.0-2.0,"<p>In this experiment, you will encounter a number of study and question cards.<p>The <strong>study cards</strong> will have two words on it. Take note of these words; you will be asked to judge how recently you have seen them. You will have four seconds to look at the study card.</p><p>The <strong>question cards</strong> will also show you two words (with a red question mark between the words to show that it is a question card). When you encounter a question card, indicate which of the two words shown have been seen on a study card most recently. If a word has not been seen on a study card yet, treat the word as if it occurred a very long time ago. You will indicate which word occurred most recently with the ‘A’ key for the word on the left side and the ‘L’ key for the word on the right side.</p><p>Each word will be seen at most twice: once on a study card and once on a question card.</p><p>Press the Space Bar to begin.</p>",32,,
null,,,html-keyboard-response,3,127297,0.0-3.0,"<h1 style=""font-size: 35px"">KEEPER</h1><h1 style=""font-size: 35px; margin-top: 45px;"">WRIST</h1>",null,,
null,,,html-keyboard-response,4,132078,0.0-4.0,"<h1 style=""font-size: 35px"">CHIPMUNK</h1><h1 style=""font-size: 35px; margin-top: 45px;"">COBRA</h1>",null,,
null,,,html-keyboard-response,5,136840,0.0-5.0,"<h1 style=""font-size: 35px"">HAWK</h1><h1 style=""font-size: 35px; margin-top: 45px;"">SCALPEL</h1>",null,,
null,,,html-keyboard-response,6,141597,0.0-6.0,"<h1 style=""font-size: 35px"">GRAVE</h1><h1 style=""font-size: 35px; margin-top: 45px;"">ORANGE</h1>",null,,
null,,,html-keyboard-response,7,146351,0.0-7.0,"<h1 style=""font-size: 35px"">CLOCK</h1><h1 style=""font-size: 35px; margin-top: 45px;"">GROUND</h1>",null,,
null,,,html-keyboard-response,8,151129,0.0-8.0,"<h1 style=""font-size: 35px"">CLAMP</h1><h1 style=""font-size: 35px; margin-top: 45px;"">REPORT</h1>",null,,
null,,,html-keyboard-response,9,155899,0.0-9.0,"<h1 style=""font-size: 35px"">BADGE</h1><h1 style=""font-size: 35px; margin-top: 45px;"">LUGGAGE</h1>",null,,
2309.35,,,html-keyboard-response,10,158970,0.0-10.0,"<h1 style=""font-size: 35px;"">VENUS<span style=""color: #ff0000; padding-left: 50px; padding-right: 50px;""> ? </span>ORANGE</h1>",76,,
null,,,html-keyboard-response,11,163736,0.0-11.0,"<h1 style=""font-size: 35px"">TOMBSTONE</h1><h1 style=""font-size: 35px; margin-top: 45px;"">CONVICT</h1>",null,,
2321.675,,,html-keyboard-response,12,166814,0.0-12.0,"<h1 style=""font-size: 35px;"">CHIPMUNK<span style=""color: #ff0000; padding-left: 50px; padding-right: 50px;""> ? </span>GRAVE</h1>",76,,
null,,,html-keyboard-response,13,171584,0.0-13.0,"<h1 style=""font-size: 35px"">DASHBOARD</h1><h1 style=""font-size: 35px; margin-top: 45px;"">BANK</h1>",null,,
2186.725,,,html-keyboard-response,14,174529,0.0-14.0,"<h1 style=""font-size: 35px;"">LUGGAGE<span style=""color: #ff0000; padding-left: 50px; padding-right: 50px;""> ? </span>REPORT</h1>",65,,
null,,,html-keyboard-response,15,179300,0.0-15.0,"<h1 style=""font-size: 35px"">BODY</h1><h1 style=""font-size: 35px; margin-top: 45px;"">LASER</h1>",null,,
1863.62,,,html-keyboard-response,16,181920,0.0-16.0,"<h1 style=""font-size: 35px;"">GROUND<span style=""color: #ff0000; padding-left: 50px; padding-right: 50px;""> ? </span>TEACHER</h1>",65,,
null,,,html-keyboard-response,17,186680,0.0-17.0,"<h1 style=""font-size: 35px"">HATCHET</h1><h1 style=""font-size: 35px; margin-top: 45px;"">AIRPORT</h1>",null,,
1679.695,,,html-keyboard-response,18,189119,0.0-18.0,"<h1 style=""font-size: 35px;"">CLAMP<span style=""color: #ff0000; padding-left: 50px; padding-right: 50px;""> ? </span>BANK</h1>",65,,
null,,,html-keyboard-response,19,193888,0.0-19.0,"<h1 style=""font-size: 35px"">POWDER</h1><h1 style=""font-size: 35px; margin-top: 45px;"">BULLET</h1>",null,,
1323.275,,,html-keyboard-response,20,195963,0.0-20.0,"<h1 style=""font-size: 35px;"">HATCHET<span style=""color: #ff0000; padding-left: 50px; padding-right: 50px;""> ? </span>CLOCK</h1>",65,,
null,,,html-keyboard-response,21,200722,0.0-21.0,"<h1 style=""font-size: 35px"">LIVER</h1><h1 style=""font-size: 35px; margin-top: 45px;"">FIDDLE</h1>",null,,
1231.925,,,html-keyboard-response,22,202705,0.0-22.0,"<h1 style=""font-size: 35px;"">COBRA<span style=""color: #ff0000; padding-left: 50px; padding-right: 50px;""> ? </span>FIDDLE</h1>",76,,
null,,,html-keyboard-response,23,207478,0.0-23.0,"<h1 style=""font-size: 35px"">HOUND</h1><h1 style=""font-size: 35px; margin-top: 45px;"">SEAL</h1>",null,,
1099.3,,,html-keyboard-response,24,209336,0.0-24.0,"<h1 style=""font-size: 35px;"">PADDING<span style=""color: #ff0000; padding-left: 50px; padding-right: 50px;""> ? </span>CONVICT</h1>",76,,
null,,,html-keyboard-response,25,214103,0.0-25.0,"<h1 style=""font-size: 35px"">PRINCESS</h1><h1 style=""font-size: 35px; margin-top: 45px;"">SPOON</h1>",null,,
884.08,,,html-keyboard-response,26,215738,0.0-26.0,"<h1 style=""font-size: 35px;"">TOMBSTONE<span style=""color: #ff0000; padding-left: 50px; padding-right: 50px;""> ? </span>SPOON</h1>",76,,
null,,,html-keyboard-response,27,220518,0.0-27.0,"<h1 style=""font-size: 35px"">DOUGHNUT</h1><h1 style=""font-size: 35px; margin-top: 45px;"">CEILING</h1>",null,,
1945.535,,,html-keyboard-response,28,223215,0.0-28.0,"<h1 style=""font-size: 35px;"">KEEPER<span style=""color: #ff0000; padding-left: 50px; padding-right: 50px;""> ? </span>PRINCESS</h1>",76,,
null,,,html-keyboard-response,29,227979,0.0-29.0,"<h1 style=""font-size: 35px"">HIKER</h1><h1 style=""font-size: 35px; margin-top: 45px;"">BROOK</h1>",null,,
895.665,,,html-keyboard-response,30,229629,0.0-30.0,"<h1 style=""font-size: 35px;"">CEILING<span style=""color: #ff0000; padding-left: 50px; padding-right: 50px;""> ? </span>CAMEL</h1>",65,,
null,,,html-keyboard-response,31,234394,0.0-31.0,"<h1 style=""font-size: 35px"">GANGSTER</h1><h1 style=""font-size: 35px; margin-top: 45px;"">HANDBAG</h1>",null,,
1877.66,,,html-keyboard-response,32,237028,0.0-32.0,"<h1 style=""font-size: 35px;"">LASER<span style=""color: #ff0000; padding-left: 50px; padding-right: 50px;""> ? </span>HAWK</h1>",76,,
null,,,html-keyboard-response,33,241783,0.0-33.0,"<h1 style=""font-size: 35px"">TROMBONE</h1><h1 style=""font-size: 35px; margin-top: 45px;"">TOASTER</h1>",null,,
1736.305,,,html-keyboard-response,34,244271,0.0-34.0,"<h1 style=""font-size: 35px;"">BULLET<span style=""color: #ff0000; padding-left: 50px; padding-right: 50px;""> ? </span>BODY</h1>",65,,
null,,,html-keyboard-response,35,249044,0.0-35.0,"<h1 style=""font-size: 35px"">CROWN</h1><h1 style=""font-size: 35px; margin-top: 45px;"">PASSAGE</h1>",null,,
761.525,,,html-keyboard-response,36,250561,0.0-36.0,"<h1 style=""font-size: 35px;"">LIVER<span style=""color: #ff0000; padding-left: 50px; padding-right: 50px;""> ? </span>CROWN</h1>",76,,
null,,,html-keyboard-response,37,255337,0.0-37.0,"<h1 style=""font-size: 35px"">COUNTRY</h1><h1 style=""font-size: 35px; margin-top: 45px;"">CABIN</h1>",null,,
1479.14,,,html-keyboard-response,38,257576,0.0-38.0,"<h1 style=""font-size: 35px;"">BEAVER<span style=""color: #ff0000; padding-left: 50px; padding-right: 50px;""> ? </span>PASSAGE</h1>",76,,
null,,,html-keyboard-response,39,262338,0.0-39.0,"<h1 style=""font-size: 35px"">TUBA</h1><h1 style=""font-size: 35px; margin-top: 45px;"">HORNET</h1>",null,,
1485.335,,,html-keyboard-response,40,264583,0.0-40.0,"<h1 style=""font-size: 35px;"">WRIST<span style=""color: #ff0000; padding-left: 50px; padding-right: 50px;""> ? </span>HOUND</h1>",76,,
null,,,html-keyboard-response,41,269361,0.0-41.0,"<h1 style=""font-size: 35px"">EMPIRE</h1><h1 style=""font-size: 35px; margin-top: 45px;"">APPLE</h1>",null,,
1079.985,,,html-keyboard-response,42,271194,0.0-42.0,"<h1 style=""font-size: 35px;"">TROMBONE<span style=""color: #ff0000; padding-left: 50px; padding-right: 50px;""> ? </span>HANDBAG</h1>",65,,
null,,,html-keyboard-response,43,275958,0.0-43.0,"<h1 style=""font-size: 35px"">ROBBER</h1><h1 style=""font-size: 35px; margin-top: 45px;"">PISTON</h1>",null,,
952.58,,,html-keyboard-response,44,277665,0.0-44.0,"<h1 style=""font-size: 35px;"">ROBBER<span style=""color: #ff0000; padding-left: 50px; padding-right: 50px;""> ? </span>POISON</h1>",65,,
null,,,html-keyboard-response,45,282431,0.0-45.0,"<h1 style=""font-size: 35px"">ZEBRA</h1><h1 style=""font-size: 35px; margin-top: 45px;"">SUSPECT</h1>",null,,
1241.46,,,html-keyboard-response,46,284424,0.0-46.0,"<h1 style=""font-size: 35px;"">BROOK<span style=""color: #ff0000; padding-left: 50px; padding-right: 50px;""> ? </span>APPLE</h1>",76,,
null,,,html-keyboard-response,47,289186,0.0-47.0,"<h1 style=""font-size: 35px"">THIEF</h1><h1 style=""font-size: 35px; margin-top: 45px;"">QUEEN</h1>",null,,
947.41,,,html-keyboard-response,48,290891,0.0-48.0,"<h1 style=""font-size: 35px;"">HORNET<span style=""color: #ff0000; padding-left: 50px; padding-right: 50px;""> ? </span>THIEF</h1>",76,,
null,,,html-keyboard-response,49,295657,0.0-49.0,"<h1 style=""font-size: 35px"">BANJO</h1><h1 style=""font-size: 35px; margin-top: 45px;"">KIDNEY</h1>",null,,
1305.8,,,html-keyboard-response,50,297715,0.0-50.0,"<h1 style=""font-size: 35px;"">KIDNEY<span style=""color: #ff0000; padding-left: 50px; padding-right: 50px;""> ? </span>QUEEN</h1>",65,,
null,,,html-keyboard-response,51,302489,0.0-51.0,"<h1 style=""font-size: 35px"">POSSUM</h1><h1 style=""font-size: 35px; margin-top: 45px;"">PAPER</h1>",null,,
891.355,,,html-keyboard-response,52,304137,0.0-52.0,"<h1 style=""font-size: 35px;"">TUNNEL<span style=""color: #ff0000; padding-left: 50px; padding-right: 50px;""> ? </span>POSSUM</h1>",76,,
null,,,html-keyboard-response,53,308908,0.0-53.0,"<h1 style=""font-size: 35px"">ROCKET</h1><h1 style=""font-size: 35px; margin-top: 45px;"">BEAKER</h1>",null,,
1033.69,,,html-keyboard-response,54,310693,0.0-54.0,"<h1 style=""font-size: 35px;"">PISTON<span style=""color: #ff0000; padding-left: 50px; padding-right: 50px;""> ? </span>BEAKER</h1>",76,,
null,,,html-keyboard-response,55,315473,0.0-55.0,"<h1 style=""font-size: 35px"">WHISKERS</h1><h1 style=""font-size: 35px; margin-top: 45px;"">PREACHER</h1>",null,,
666.105,,,html-keyboard-response,56,316890,0.0-56.0,"<h1 style=""font-size: 35px;"">WHISKERS<span style=""color: #ff0000; padding-left: 50px; padding-right: 50px;""> ? </span>COUNTRY</h1>",65,,
null,,,html-keyboard-response,57,321651,0.0-57.0,"<h1 style=""font-size: 35px"">BATHTUB</h1><h1 style=""font-size: 35px; margin-top: 45px;"">STICKER</h1>",null,,
751.68,,,html-keyboard-response,58,323158,0.0-58.0,"<h1 style=""font-size: 35px;"">BATHTUB<span style=""color: #ff0000; padding-left: 50px; padding-right: 50px;""> ? </span>SPOUSE</h1>",65,,
null,,,html-keyboard-response,59,327922,0.0-59.0,"<h1 style=""font-size: 35px"">ATOM</h1><h1 style=""font-size: 35px; margin-top: 45px;"">CATCHER</h1>",null,,
1185.095,,,html-keyboard-response,60,329872,0.0-60.0,"<h1 style=""font-size: 35px;"">HIKER<span style=""color: #ff0000; padding-left: 50px; padding-right: 50px;""> ? </span>PAPER</h1>",76,,
null,,,html-keyboard-response,61,334644,0.0-61.0,"<h1 style=""font-size: 35px"">RABBIT</h1><h1 style=""font-size: 35px; margin-top: 45px;"">SURVEY</h1>",null,,
1413.96,,,html-keyboard-response,62,336818,0.0-62.0,"<h1 style=""font-size: 35px;"">PREACHER<span style=""color: #ff0000; padding-left: 50px; padding-right: 50px;""> ? </span>SUSPECT</h1>",65,,
null,,,html-keyboard-response,63,341586,0.0-63.0,"<h1 style=""font-size: 35px"">STUDENT</h1><h1 style=""font-size: 35px; margin-top: 45px;"">BRAKE</h1>",null,,
1013.345,,,html-keyboard-response,64,343346,0.0-64.0,"<h1 style=""font-size: 35px;"">SURVEY<span style=""color: #ff0000; padding-left: 50px; padding-right: 50px;""> ? </span>BRAKE</h1>",76,,
null,,,html-keyboard-response,65,348116,0.0-65.0,"<h1 style=""font-size: 35px"">AUTHOR</h1><h1 style=""font-size: 35px; margin-top: 45px;"">FLIPPER</h1>",null,,
1592.965,,,html-keyboard-response,66,350473,0.0-66.0,"<h1 style=""font-size: 35px;"">SKETCH<span style=""color: #ff0000; padding-left: 50px; padding-right: 50px;""> ? </span>TUBA</h1>",76,,
null,,,html-keyboard-response,67,355239,0.0-67.0,"<h1 style=""font-size: 35px"">MISTER</h1><h1 style=""font-size: 35px; margin-top: 45px;"">CRICKET</h1>",null,,
1846.72,,,html-keyboard-response,68,357845,0.0-68.0,"<h1 style=""font-size: 35px;"">AUTHOR<span style=""color: #ff0000; padding-left: 50px; padding-right: 50px;""> ? </span>STUDENT</h1>",65,,
null,,,html-keyboard-response,69,362623,0.0-69.0,"<h1 style=""font-size: 35px"">POLICE</h1><h1 style=""font-size: 35px; margin-top: 45px;"">MOTEL</h1>",null,,
731.445,,,html-keyboard-response,70,364115,0.0-70.0,"<h1 style=""font-size: 35px;"">MOTEL<span style=""color: #ff0000; padding-left: 50px; padding-right: 50px;""> ? </span>CATCHER</h1>",65,,
null,,,html-keyboard-response,71,368889,0.0-71.0,"<h1 style=""font-size: 35px"">SERVANT</h1><h1 style=""font-size: 35px; margin-top: 45px;"">CUPBOARD</h1>",null,,
1004.05,,,html-keyboard-response,72,370650,0.0-72.0,"<h1 style=""font-size: 35px;"">MISTER<span style=""color: #ff0000; padding-left: 50px; padding-right: 50px;""> ? </span>SWORD</h1>",65,,
null,,,html-keyboard-response,73,375413,0.0-73.0,"<h1 style=""font-size: 35px"">KLEENEX</h1><h1 style=""font-size: 35px; margin-top: 45px;"">STAKE</h1>",null,,
1261.68,,,html-keyboard-response,74,377438,0.0-74.0,"<h1 style=""font-size: 35px;"">STICKER<span style=""color: #ff0000; padding-left: 50px; padding-right: 50px;""> ? </span>CASHEW</h1>",65,"16,many",0
null,,,html-keyboard-response,75,382196,0.0-75.0,"<h1 style=""font-size: 35px"">BROTHER</h1><h1 style=""font-size: 35px; margin-top: 45px;"">STOVE</h1>",null,,
661.005,,,html-keyboard-response,76,383620,0.0-76.0,"<h1 style=""font-size: 35px;"">BROTHER<span style=""color: #ff0000; padding-left: 50px; padding-right: 50px;""> ? </span>ATOM</h1>",65,"0,16",0
null,,,html-keyboard-response,77,388378,0.0-77.0,"<h1 style=""font-size: 35px"">FEMALE</h1><h1 style=""font-size: 35px; margin-top: 45px;"">LEADER</h1>",null,,
1388.2,,,html-keyboard-response,78,390522,0.0-78.0,"<h1 style=""font-size: 35px;"">ROD<span style=""color: #ff0000; padding-left: 50px; padding-right: 50px;""> ? </span>BADGE</h1>",76,"68,many",1
null,,,html-keyboard-response,79,395285,0.0-79.0,"<h1 style=""font-size: 35px"">TABLE</h1><h1 style=""font-size: 35px; margin-top: 45px;"">BISON</h1>",null,,
1032.88,,,html-keyboard-response,80,397070,0.0-80.0,"<h1 style=""font-size: 35px;"">PLASTER<span style=""color: #ff0000; padding-left: 50px; padding-right: 50px;""> ? </span>FEMALE</h1>",76,"2,many",1
null,,,html-keyboard-response,81,401826,0.0-81.0,"<h1 style=""font-size: 35px"">LAVA</h1><h1 style=""font-size: 35px; margin-top: 45px;"">PATIENT</h1>",null,,
851.785,,,html-keyboard-response,82,403439,0.0-82.0,"<h1 style=""font-size: 35px;"">LEADER<span style=""color: #ff0000; padding-left: 50px; padding-right: 50px;""> ? </span>TABLE</h1>",65,"2,4",1
null,,,html-keyboard-response,83,408209,0.0-83.0,"<h1 style=""font-size: 35px"">GYMNAST</h1><h1 style=""font-size: 35px; margin-top: 45px;"">DORM</h1>",null,,
815.635,,,html-keyboard-response,84,409791,0.0-84.0,"<h1 style=""font-size: 35px;"">LAVA<span style=""color: #ff0000; padding-left: 50px; padding-right: 50px;""> ? </span>CRICKET</h1>",65,"2,16",0
null,,,html-keyboard-response,85,414564,0.0-85.0,"<h1 style=""font-size: 35px"">MARINE</h1><h1 style=""font-size: 35px; margin-top: 45px;"">MAPLE</h1>",null,,
1706.3,,,html-keyboard-response,86,417030,0.0-86.0,"<h1 style=""font-size: 35px;"">PATIENT<span style=""color: #ff0000; padding-left: 50px; padding-right: 50px;""> ? </span>AIRPORT</h1>",65,"4,68",0
null,,,html-keyboard-response,87,421793,0.0-87.0,"<h1 style=""font-size: 35px"">SEAGULL</h1><h1 style=""font-size: 35px; margin-top: 45px;"">BINDER</h1>",null,,
1005.63,,,html-keyboard-response,88,423551,0.0-88.0,"<h1 style=""font-size: 35px;"">MARINE<span style=""color: #ff0000; padding-left: 50px; padding-right: 50px;""> ? </span>POWDER</h1>",65,"2,68",0
null,,,html-keyboard-response,89,428323,0.0-89.0,"<h1 style=""font-size: 35px"">MEAT</h1><h1 style=""font-size: 35px; margin-top: 45px;"">SNAKE</h1>",null,,
602.59,,,html-keyboard-response,90,429685,0.0-90.0,"<h1 style=""font-size: 35px;"">KETCHUP<span style=""color: #ff0000; padding-left: 50px; padding-right: 50px;""> ? </span>MEAT</h1>",76,"0,many",1
null,,,html-keyboard-response,91,434461,0.0-91.0,"<h1 style=""font-size: 35px"">COLLEGE</h1><h1 style=""font-size: 35px; margin-top: 45px;"">SPIDER</h1>",null,,
1025.01,,,html-keyboard-response,92,436246,0.0-92.0,"<h1 style=""font-size: 35px;"">STOVE<span style=""color: #ff0000; padding-left: 50px; padding-right: 50px;""> ? </span>SEAL</h1>",65,"16,68",0
null,,,html-keyboard-response,93,441022,0.0-93.0,"<h1 style=""font-size: 35px"">SHELTER</h1><h1 style=""font-size: 35px; margin-top: 45px;"">DRILL</h1>",null,,
787.34,,,html-keyboard-response,94,442575,0.0-94.0,"<h1 style=""font-size: 35px;"">COLLEGE<span style=""color: #ff0000; padding-left: 50px; padding-right: 50px;""> ? </span>SHELTER</h1>",76,"0,2",1
null,,,html-keyboard-response,95,447342,0.0-95.0,"<h1 style=""font-size: 35px"">LODGE</h1><h1 style=""font-size: 35px; margin-top: 45px;"">LAKE</h1>",null,,
722.52,,,html-keyboard-response,96,448825,0.0-96.0,"<h1 style=""font-size: 35px;"">LODGE<span style=""color: #ff0000; padding-left: 50px; padding-right: 50px;""> ? </span>DOUGHNUT</h1>",65,"0,68",0
null,,,html-keyboard-response,97,453603,0.0-97.0,"<h1 style=""font-size: 35px"">TART</h1><h1 style=""font-size: 35px; margin-top: 45px;"">SUBWAY</h1>",null,,
2286.84,,,html-keyboard-response,98,456656,0.0-98.0,"<h1 style=""font-size: 35px;"">DRILL<span style=""color: #ff0000; padding-left: 50px; padding-right: 50px;""> ? </span>SANDWICH</h1>",65,"4,many",0
null,,,html-keyboard-response,99,461432,0.0-99.0,"<h1 style=""font-size: 35px"">SWIMMER</h1><h1 style=""font-size: 35px; margin-top: 45px;"">COOK</h1>",null,,
3260.83,,,html-keyboard-response,100,465443,0.0-100.0,"<h1 style=""font-size: 35px;"">GYMNAST<span style=""color: #ff0000; padding-left: 50px; padding-right: 50px;""> ? </span>LAKE</h1>",76,"4,16",1
null,,,html-keyboard-response,101,470212,0.0-101.0,"<h1 style=""font-size: 35px"">CURTAIN</h1><h1 style=""font-size: 35px; margin-top: 45px;"">LOVER</h1>",null,,
1354.595,,,html-keyboard-response,102,472335,0.0-102.0,"<h1 style=""font-size: 35px;"">SUBWAY<span style=""color: #ff0000; padding-left: 50px; padding-right: 50px;""> ? </span>CURTAIN</h1>",76,"0,4",1
null,,,html-keyboard-response,103,477090,0.0-103.0,"<h1 style=""font-size: 35px"">ISLAND</h1><h1 style=""font-size: 35px; margin-top: 45px;"">NIGHTGOWN</h1>",null,,
864.005,,,html-keyboard-response,104,478710,0.0-104.0,"<h1 style=""font-size: 35px;"">CASKET<span style=""color: #ff0000; padding-left: 50px; padding-right: 50px;""> ? </span>ISLAND</h1>",76,"0,many",1
null,,,html-keyboard-response,105,483467,0.0-105.0,"<h1 style=""font-size: 35px"">POPCORN</h1><h1 style=""font-size: 35px; margin-top: 45px;"">SLUG</h1>",null,,
543.075,,,html-keyboard-response,106,484773,0.0-106.0,"<h1 style=""font-size: 35px;"">POPCORN<span style=""color: #ff0000; padding-left: 50px; padding-right: 50px;""> ? </span>CABIN</h1>",65,"0,68",0
null,,,html-keyboard-response,107,489531,0.0-107.0,"<h1 style=""font-size: 35px"">SHARK</h1><h1 style=""font-size: 35px; margin-top: 45px;"">ACTRESS</h1>",null,,
1554.61,,,html-keyboard-response,108,491849,0.0-108.0,"<h1 style=""font-size: 35px;"">SLIME<span style=""color: #ff0000; padding-left: 50px; padding-right: 50px;""> ? </span>SPIDER</h1>",76,"16,many",1
null,,,html-keyboard-response,109,496611,0.0-109.0,"<h1 style=""font-size: 35px"">WAGON</h1><h1 style=""font-size: 35px; margin-top: 45px;"">BARLEY</h1>",null,,
1978.56,,,html-keyboard-response,110,499355,0.0-110.0,"<h1 style=""font-size: 35px;"">EMPIRE<span style=""color: #ff0000; padding-left: 50px; padding-right: 50px;""> ? </span>MILK</h1>",65,"68,many",0
null,,,html-keyboard-response,111,504121,0.0-111.0,"<h1 style=""font-size: 35px"">CRUTCH</h1><h1 style=""font-size: 35px; margin-top: 45px;"">VALVE</h1>",null,,
1341.27,,,html-keyboard-response,112,506221,0.0-112.0,"<h1 style=""font-size: 35px;"">GLASS<span style=""color: #ff0000; padding-left: 50px; padding-right: 50px;""> ? </span>SHARK</h1>",76,"4,many",1
null,,,html-keyboard-response,113,510977,0.0-113.0,"<h1 style=""font-size: 35px"">SCOTCH</h1><h1 style=""font-size: 35px; margin-top: 45px;"">SAUSAGE</h1>",null,,
2269.735,,,html-keyboard-response,114,514012,0.0-114.0,"<h1 style=""font-size: 35px;"">ZEBRA<span style=""color: #ff0000; padding-left: 50px; padding-right: 50px;""> ? </span>WAGON</h1>",65,"4,68",1
null,,,html-keyboard-response,115,518776,0.0-115.0,"<h1 style=""font-size: 35px"">PENGUIN</h1><h1 style=""font-size: 35px; margin-top: 45px;"">VIRUS</h1>",null,,
649.1,,,html-keyboard-response,116,520189,0.0-116.0,"<h1 style=""font-size: 35px;"">PENGUIN<span style=""color: #ff0000; padding-left: 50px; padding-right: 50px;""> ? </span>SCOTCH</h1>",65,"0,2",0
null,,,html-keyboard-response,117,524954,0.0-117.0,"<h1 style=""font-size: 35px"">TEMPLE</h1><h1 style=""font-size: 35px; margin-top: 45px;"">LONDON</h1>",null,,
1427.525,,,html-keyboard-response,118,527141,0.0-118.0,"<h1 style=""font-size: 35px;"">SAUSAGE<span style=""color: #ff0000; padding-left: 50px; padding-right: 50px;""> ? </span>LOVER</h1>",65,"4,16",0
null,,,html-keyboard-response,119,531900,0.0-119.0,"<h1 style=""font-size: 35px"">ITEM</h1><h1 style=""font-size: 35px; margin-top: 45px;"">CRITIC</h1>",null,,
980.325,,,html-keyboard-response,120,533641,0.0-120.0,"<h1 style=""font-size: 35px;"">TEMPLE<span style=""color: #ff0000; padding-left: 50px; padding-right: 50px;""> ? </span>VIRUS</h1>",65,"2,4",0
null,,,html-keyboard-response,121,538397,0.0-121.0,"<h1 style=""font-size: 35px"">PIZZA</h1><h1 style=""font-size: 35px; margin-top: 45px;"">HOOD</h1>",null,,
1377.7,,,html-keyboard-response,122,540530,0.0-122.0,"<h1 style=""font-size: 35px;"">ROCKET<span style=""color: #ff0000; padding-left: 50px; padding-right: 50px;""> ? </span>SLUG</h1>",65,"16,68",1
null,,,html-keyboard-response,123,545302,0.0-123.0,"<h1 style=""font-size: 35px"">CHAPEL</h1><h1 style=""font-size: 35px; margin-top: 45px;"">DRUG</h1>",null,,
937.185,,,html-keyboard-response,124,546999,0.0-124.0,"<h1 style=""font-size: 35px;"">PIZZA<span style=""color: #ff0000; padding-left: 50px; padding-right: 50px;""> ? </span>BLOUSE</h1>",65,"2,many",0
null,,,html-keyboard-response,125,551767,0.0-125.0,"<h1 style=""font-size: 35px"">WIDOW</h1><h1 style=""font-size: 35px; margin-top: 45px;"">SKILLET</h1>",null,,
994.175,,,html-keyboard-response,126,553512,0.0-126.0,"<h1 style=""font-size: 35px;"">BARLEY<span style=""color: #ff0000; padding-left: 50px; padding-right: 50px;""> ? </span>WIDOW</h1>",76,"0,16",1
null,,,html-keyboard-response,127,558284,0.0-127.0,"<h1 style=""font-size: 35px"">LIGHTNING</h1><h1 style=""font-size: 35px; margin-top: 45px;"">CARROT</h1>",null,,
1471.285,,,html-keyboard-response,128,560510,0.0-128.0,"<h1 style=""font-size: 35px;"">SKILLET<span style=""color: #ff0000; padding-left: 50px; padding-right: 50px;""> ? </span>CRUTCH</h1>",65,"2,16",0
null,,,html-keyboard-response,129,565283,0.0-129.0,"<h1 style=""font-size: 35px"">SHERIFF</h1><h1 style=""font-size: 35px; margin-top: 45px;"">LETTUCE</h1>",null,,
1349.925,,,html-keyboard-response,130,567385,0.0-130.0,"<h1 style=""font-size: 35px;"">RABBIT<span style=""color: #ff0000; padding-left: 50px; padding-right: 50px;""> ? </span>LIGHTNING</h1>",65,"2,68",1
null,,,html-keyboard-response,131,572142,0.0-131.0,"<h1 style=""font-size: 35px"">COTTAGE</h1><h1 style=""font-size: 35px; margin-top: 45px;"">LUNCH</h1>",null,,
821.75,,,html-keyboard-response,132,573715,0.0-132.0,"<h1 style=""font-size: 35px;"">CARROT<span style=""color: #ff0000; padding-left: 50px; padding-right: 50px;""> ? </span>COTTAGE</h1>",76,"0,4",1
null,,,html-keyboard-response,133,578484,0.0-133.0,"<h1 style=""font-size: 35px"">CIGAR</h1><h1 style=""font-size: 35px; margin-top: 45px;"">POET</h1>",null,,
953.68,,,html-keyboard-response,134,580193,0.0-134.0,"<h1 style=""font-size: 35px;"">LUNCH<span style=""color: #ff0000; padding-left: 50px; padding-right: 50px;""> ? </span>SHERIFF</h1>",65,"2,4",0
null,,,html-keyboard-response,135,584971,0.0-135.0,"<h1 style=""font-size: 35px"">SLOPE</h1><h1 style=""font-size: 35px; margin-top: 45px;"">VALLEY</h1>",null,,
686.31,,,html-keyboard-response,136,586422,0.0-136.0,"<h1 style=""font-size: 35px;"">SLOPE<span style=""color: #ff0000; padding-left: 50px; padding-right: 50px;""> ? </span>LIZARD</h1>",65,"0,many",0
null,,,html-keyboard-response,137,591184,0.0-137.0,"<h1 style=""font-size: 35px"">MARKET</h1><h1 style=""font-size: 35px; margin-top: 45px;"">CAPTIVE</h1>",null,,
622.135,,,html-keyboard-response,138,592562,0.0-138.0,"<h1 style=""font-size: 35px;"">MARKET<span style=""color: #ff0000; padding-left: 50px; padding-right: 50px;""> ? </span>HOOD</h1>",65,"0,16",0
null,,,html-keyboard-response,139,597321,0.0-139.0,"<h1 style=""font-size: 35px"">SHOVEL</h1><h1 style=""font-size: 35px; margin-top: 45px;"">CRIB</h1>",null,,
2056,,,html-keyboard-response,140,600143,0.0-140.0,"<h1 style=""font-size: 35px;"">CAPTIVE<span style=""color: #ff0000; padding-left: 50px; padding-right: 50px;""> ? </span>CHAPEL</h1>",65,"2,16",0
null,,,html-keyboard-response,141,604917,0.0-141.0,"<h1 style=""font-size: 35px"">THREAD</h1><h1 style=""font-size: 35px; margin-top: 45px;"">SCARF</h1>",null,,
569.87,,,html-keyboard-response,142,606241,0.0-142.0,"<h1 style=""font-size: 35px;"">SHOVEL<span style=""color: #ff0000; padding-left: 50px; padding-right: 50px;""> ? </span>THREAD</h1>",76,"0,2",1
null,,,html-keyboard-response,143,611012,0.0-143.0,"<h1 style=""font-size: 35px"">SADDLE</h1><h1 style=""font-size: 35px; margin-top: 45px;"">COCOON</h1>",null,,
1232.26,,,html-keyboard-response,144,613001,0.0-144.0,"<h1 style=""font-size: 35px;"">TABLET<span style=""color: #ff0000; padding-left: 50px; padding-right: 50px;""> ? </span>SCARF</h1>",76,"2,many",1
null,,,html-keyboard-response,145,617767,0.0-145.0,"<h1 style=""font-size: 35px"">GALLON</h1><h1 style=""font-size: 35px; margin-top: 45px;"">XEROX</h1>",null,,
910.055,,,html-keyboard-response,146,619429,0.0-146.0,"<h1 style=""font-size: 35px;"">SADDLE<span style=""color: #ff0000; padding-left: 50px; padding-right: 50px;""> ? </span>CONCERT</h1>",65,"4,many",0
null,,,html-keyboard-response,147,624196,0.0-147.0,"<h1 style=""font-size: 35px"">NOVEL</h1><h1 style=""font-size: 35px; margin-top: 45px;"">CONTRACT</h1>",null,,
670.205,,,html-keyboard-response,148,625630,0.0-148.0,"<h1 style=""font-size: 35px;"">BISON<span style=""color: #ff0000; padding-left: 50px; padding-right: 50px;""> ? </span>NOVEL</h1>",76,"0,68",1
null,,,html-keyboard-response,149,630400,0.0-149.0,"<h1 style=""font-size: 35px"">ONION</h1><h1 style=""font-size: 35px; margin-top: 45px;"">SPONGE</h1>",null,,
1420.665,,,html-keyboard-response,150,632587,0.0-150.0,"<h1 style=""font-size: 35px;"">CIGAR<span style=""color: #ff0000; padding-left: 50px; padding-right: 50px;""> ? </span>EAGLE</h1>",65,"16,many",0
null,,,html-keyboard-response,151,637355,0.0-151.0,"<h1 style=""font-size: 35px"">SHORTS</h1><h1 style=""font-size: 35px; margin-top: 45px;"">TRANSPLANT</h1>",null,,
1148.405,,,html-keyboard-response,152,639264,0.0-152.0,"<h1 style=""font-size: 35px;"">DORM<span style=""color: #ff0000; padding-left: 50px; padding-right: 50px;""> ? </span>VALLEY</h1>",76,"16,68",1
null,,,html-keyboard-response,153,644030,0.0-153.0,"<h1 style=""font-size: 35px"">FLAG</h1><h1 style=""font-size: 35px; margin-top: 45px;"">DAISY</h1>",null,,
971.51,,,html-keyboard-response,154,645750,0.0-154.0,"<h1 style=""font-size: 35px;"">ONION<span style=""color: #ff0000; padding-left: 50px; padding-right: 50px;""> ? </span>FLAG</h1>",76,"0,4",1
null,,,html-keyboard-response,155,650512,0.0-155.0,"<h1 style=""font-size: 35px"">SALT</h1><h1 style=""font-size: 35px; margin-top: 45px;"">PROTON</h1>",null,,
1661.49,,,html-keyboard-response,156,652938,0.0-156.0,"<h1 style=""font-size: 35px;"">SEAGULL<span style=""color: #ff0000; padding-left: 50px; padding-right: 50px;""> ? </span>PUPIL</h1>",65,"68,many",0
null,,,html-keyboard-response,157,657695,0.0-157.0,"<h1 style=""font-size: 35px"">BOYFRIEND</h1><h1 style=""font-size: 35px; margin-top: 45px;"">PORTRAIT</h1>",null,,
2663.125,,,html-keyboard-response,158,661124,0.0-158.0,"<h1 style=""font-size: 35px;"">SALT<span style=""color: #ff0000; padding-left: 50px; padding-right: 50px;""> ? </span>SNAKE</h1>",65,"2,68",0
null,,,html-keyboard-response,159,665890,0.0-159.0,"<h1 style=""font-size: 35px"">RACKET</h1><h1 style=""font-size: 35px; margin-top: 45px;"">EXPERT</h1>",null,,
1131.665,,,html-keyboard-response,160,667776,0.0-160.0,"<h1 style=""font-size: 35px;"">TART<span style=""color: #ff0000; padding-left: 50px; padding-right: 50px;""> ? </span>PROTON</h1>",76,"4,68",1
null,,,html-keyboard-response,161,672532,0.0-161.0,"<h1 style=""font-size: 35px"">COFFEE</h1><h1 style=""font-size: 35px; margin-top: 45px;"">EGYPT</h1>",null,,
1821.83,,,html-keyboard-response,162,675114,0.0-162.0,"<h1 style=""font-size: 35px;"">PORTRAIT<span style=""color: #ff0000; padding-left: 50px; padding-right: 50px;""> ? </span>GALLON</h1>",76,"4,16",0
null,,,html-keyboard-response,163,679880,0.0-163.0,"<h1 style=""font-size: 35px"">BREAST</h1><h1 style=""font-size: 35px; margin-top: 45px;"">GOBLIN</h1>",null,,
1814.605,,,html-keyboard-response,164,682454,0.0-164.0,"<h1 style=""font-size: 35px;"">CONTRACT<span style=""color: #ff0000; padding-left: 50px; padding-right: 50px;""> ? </span>RACKET</h1>",65,"4,16",1
null,,,html-keyboard-response,165,687208,0.0-165.0,"<h1 style=""font-size: 35px"">STATUE</h1><h1 style=""font-size: 35px; margin-top: 45px;"">WOMAN</h1>",null,,
807.03,,,html-keyboard-response,166,688781,0.0-166.0,"<h1 style=""font-size: 35px;"">SPONGE<span style=""color: #ff0000; padding-left: 50px; padding-right: 50px;""> ? </span>STATUE</h1>",76,"0,16",1
null,,,html-keyboard-response,167,693543,0.0-167.0,"<h1 style=""font-size: 35px"">STALLION</h1><h1 style=""font-size: 35px; margin-top: 45px;"">WASHER</h1>",null,,
1021.995,,,html-keyboard-response,168,695328,0.0-168.0,"<h1 style=""font-size: 35px;"">SWIMMER<span style=""color: #ff0000; padding-left: 50px; padding-right: 50px;""> ? </span>BREAST</h1>",76,"4,68",1
null,,,html-keyboard-response,169,700089,0.0-169.0,"<h1 style=""font-size: 35px"">VAGRANT</h1><h1 style=""font-size: 35px; margin-top: 45px;"">WORKER</h1>",null,,
767.21,,,html-keyboard-response,170,701608,0.0-170.0,"<h1 style=""font-size: 35px;"">STALLION<span style=""color: #ff0000; padding-left: 50px; padding-right: 50px;""> ? </span>VAGRANT</h1>",76,"0,2",1
null,,,html-keyboard-response,171,706370,0.0-171.0,"<h1 style=""font-size: 35px"">MONEY</h1><h1 style=""font-size: 35px; margin-top: 45px;"">BASEMENT</h1>",null,,
803.28,,,html-keyboard-response,172,707927,0.0-172.0,"<h1 style=""font-size: 35px;"">MONEY<span style=""color: #ff0000; padding-left: 50px; padding-right: 50px;""> ? </span>NIGHTGOWN</h1>",65,"0,68",0
null,,,html-keyboard-response,173,712700,0.0-173.0,"<h1 style=""font-size: 35px"">DONKEY</h1><h1 style=""font-size: 35px; margin-top: 45px;"">NEUTRON</h1>",null,,
1569.95,,,html-keyboard-response,174,715027,0.0-174.0,"<h1 style=""font-size: 35px;"">BASEMENT<span style=""color: #ff0000; padding-left: 50px; padding-right: 50px;""> ? </span>DRAGON</h1>",65,"2,many",0
null,,,html-keyboard-response,175,719795,0.0-175.0,"<h1 style=""font-size: 35px"">FLESH</h1><h1 style=""font-size: 35px; margin-top: 45px;"">SWAMP</h1>",null,,
1297.585,,,html-keyboard-response,176,721856,0.0-176.0,"<h1 style=""font-size: 35px;"">DONKEY<span style=""color: #ff0000; padding-left: 50px; padding-right: 50px;""> ? </span>EXPERT</h1>",65,"2,16",0
null,,,html-keyboard-response,177,726616,0.0-177.0,"<h1 style=""font-size: 35px"">PARTNER</h1><h1 style=""font-size: 35px; margin-top: 45px;"">GREASE</h1>",null,,
1149.935,,,html-keyboard-response,178,728522,0.0-178.0,"<h1 style=""font-size: 35px;"">DANCER<span style=""color: #ff0000; padding-left: 50px; padding-right: 50px;""> ? </span>NEUTRON</h1>",76,"4,many",1
null,,,html-keyboard-response,179,733290,0.0-179.0,"<h1 style=""font-size: 35px"">SODA</h1><h1 style=""font-size: 35px; margin-top: 45px;"">ORCHID</h1>",null,,
2021.205,,,html-keyboard-response,180,736064,0.0-180.0,"<h1 style=""font-size: 35px;"">VALVE<span style=""color: #ff0000; padding-left: 50px; padding-right: 50px;""> ? </span>BUBBLE</h1>",76,"68,many",0
null,,,html-keyboard-response,181,740823,0.0-181.0,"<h1 style=""font-size: 35px"">CRATER</h1><h1 style=""font-size: 35px; margin-top: 45px;"">IDOL</h1>",null,,
1308.94,,,html-keyboard-response,182,742898,0.0-182.0,"<h1 style=""font-size: 35px;"">PIMPLE<span style=""color: #ff0000; padding-left: 50px; padding-right: 50px;""> ? </span>WOMAN</h1>",76,"16,many",1
null,,,html-keyboard-response,183,747667,0.0-183.0,"<h1 style=""font-size: 35px"">RELISH</h1><h1 style=""font-size: 35px; margin-top: 45px;"">LAGOON</h1>",null,,
1205.86,,,html-keyboard-response,184,749625,0.0-184.0,"<h1 style=""font-size: 35px;"">SODA<span style=""color: #ff0000; padding-left: 50px; padding-right: 50px;""> ? </span>RELISH</h1>",76,"0,4",1
null,,,html-keyboard-response,185,754387,0.0-185.0,"<h1 style=""font-size: 35px"">GHETTO</h1><h1 style=""font-size: 35px; margin-top: 45px;"">FLEET</h1>",null,,
1915.525,,,html-keyboard-response,186,757066,0.0-186.0,"<h1 style=""font-size: 35px;"">LONDON<span style=""color: #ff0000; padding-left: 50px; padding-right: 50px;""> ? </span>LAGOON</h1>",76,"2,68",1
null,,,html-keyboard-response,187,761822,0.0-187.0,"<h1 style=""font-size: 35px"">WIFE</h1><h1 style=""font-size: 35px; margin-top: 45px;"">ICEBERG</h1>",null,,
1090.695,,,html-keyboard-response,188,763668,0.0-188.0,"<h1 style=""font-size: 35px;"">GHETTO<span style=""color: #ff0000; padding-left: 50px; padding-right: 50px;""> ? </span>FLEET</h1>",65,"2,4",1
null,,,html-keyboard-response,189,768434,0.0-189.0,"<h1 style=""font-size: 35px"">CARRIAGE</h1><h1 style=""font-size: 35px; margin-top: 45px;"">CAFE</h1>",null,,
905.71,,,html-keyboard-response,190,770103,0.0-190.0,"<h1 style=""font-size: 35px;"">GIFT<span style=""color: #ff0000; padding-left: 50px; padding-right: 50px;""> ? </span>CARRIAGE</h1>",76,"0,many",1
null,,,html-keyboard-response,191,774866,0.0-191.0,"<h1 style=""font-size: 35px"">DRESSER</h1><h1 style=""font-size: 35px; margin-top: 45px;"">FOREST</h1>",null,,
1235.215,,,html-keyboard-response,192,776853,0.0-192.0,"<h1 style=""font-size: 35px;"">DRUG<span style=""color: #ff0000; padding-left: 50px; padding-right: 50px;""> ? </span>SWAMP</h1>",76,"16,68",1
null,,,html-keyboard-response,193,781616,0.0-193.0,"<h1 style=""font-size: 35px"">HELMET</h1><h1 style=""font-size: 35px; margin-top: 45px;"">AWARD</h1>",null,,
2183.075,,,html-keyboard-response,194,784566,0.0-194.0,"<h1 style=""font-size: 35px;"">GREASE<span style=""color: #ff0000; padding-left: 50px; padding-right: 50px;""> ? </span>DRESSER</h1>",76,"2,16",1
null,,,html-keyboard-response,195,789331,0.0-195.0,"<h1 style=""font-size: 35px"">GLOVE</h1><h1 style=""font-size: 35px; margin-top: 45px;"">PORK</h1>",null,,
1238.44,,,html-keyboard-response,196,791336,0.0-196.0,"<h1 style=""font-size: 35px;"">FOREST<span style=""color: #ff0000; padding-left: 50px; padding-right: 50px;""> ? </span>HELMET</h1>",76,"2,4",1
null,,,html-keyboard-response,197,796101,0.0-197.0,"<h1 style=""font-size: 35px"">HARP</h1><h1 style=""font-size: 35px; margin-top: 45px;"">REBEL</h1>",null,,
1406.25,,,html-keyboard-response,198,798268,0.0-198.0,"<h1 style=""font-size: 35px;"">CRATER<span style=""color: #ff0000; padding-left: 50px; padding-right: 50px;""> ? </span>LETTUCE</h1>",76,"16,68",0
null,,,html-keyboard-response,199,803030,0.0-199.0,"<h1 style=""font-size: 35px"">VIKING</h1><h1 style=""font-size: 35px; margin-top: 45px;"">BUREAU</h1>",null,,
635.175,,,html-keyboard-response,200,804429,0.0-200.0,"<h1 style=""font-size: 35px;"">GLOVE<span style=""color: #ff0000; padding-left: 50px; padding-right: 50px;""> ? </span>VIKING</h1>",76,"0,4",1
null,,,html-keyboard-response,201,809207,0.0-201.0,"<h1 style=""font-size: 35px"">BOARD</h1><h1 style=""font-size: 35px; margin-top: 45px;"">ROBOT</h1>",null,,
1130.43,,,html-keyboard-response,202,811092,0.0-202.0,"<h1 style=""font-size: 35px;"">POET<span style=""color: #ff0000; padding-left: 50px; padding-right: 50px;""> ? </span>HARP</h1>",76,"4,68",1
null,,,html-keyboard-response,203,815845,0.0-203.0,"<h1 style=""font-size: 35px"">PRINCE</h1><h1 style=""font-size: 35px; margin-top: 45px;"">MUSTARD</h1>",null,,
1241.65,,,html-keyboard-response,204,817850,0.0-204.0,"<h1 style=""font-size: 35px;"">RAZOR<span style=""color: #ff0000; padding-left: 50px; padding-right: 50px;""> ? </span>ICEBERG</h1>",76,"16,many",1
null,,,html-keyboard-response,205,822617,0.0-205.0,"<h1 style=""font-size: 35px"">GIRL</h1><h1 style=""font-size: 35px; margin-top: 45px;"">LIPSTICK</h1>",null,,
1511.205,,,html-keyboard-response,206,824885,0.0-206.0,"<h1 style=""font-size: 35px;"">SOFTBALL<span style=""color: #ff0000; padding-left: 50px; padding-right: 50px;""> ? </span>BOARD</h1>",76,"4,many",1
null,,,html-keyboard-response,207,829654,0.0-207.0,"<h1 style=""font-size: 35px"">SERVER</h1><h1 style=""font-size: 35px; margin-top: 45px;"">CASHIER</h1>",null,,
771.42,,,html-keyboard-response,208,831180,0.0-208.0,"<h1 style=""font-size: 35px;"">GIRL<span style=""color: #ff0000; padding-left: 50px; padding-right: 50px;""> ? </span>SERVER</h1>",76,"0,2",1
null,,,html-keyboard-response,209,835953,0.0-209.0,"<h1 style=""font-size: 35px"">PADDLE</h1><h1 style=""font-size: 35px; margin-top: 45px;"">RIVER</h1>",null,,
1126.855,,,html-keyboard-response,210,837834,0.0-210.0,"<h1 style=""font-size: 35px;"">LIPSTICK<span style=""color: #ff0000; padding-left: 50px; padding-right: 50px;""> ? </span>AWARD</h1>",65,"4,16",0
null,,,html-keyboard-response,211,842592,0.0-211.0,"<h1 style=""font-size: 35px"">SUNRISE</h1><h1 style=""font-size: 35px; margin-top: 45px;"">WASP</h1>",null,,
1394.69,,,html-keyboard-response,212,844738,0.0-212.0,"<h1 style=""font-size: 35px;"">PADDLE<span style=""color: #ff0000; padding-left: 50px; padding-right: 50px;""> ? </span>STREAM</h1>",65,"2,many",0
null,,,html-keyboard-response,213,849490,0.0-213.0,"<h1 style=""font-size: 35px"">HEADBAND</h1><h1 style=""font-size: 35px; margin-top: 45px;"">FOOT</h1>",null,,
636.955,,,html-keyboard-response,214,850878,0.0-214.0,"<h1 style=""font-size: 35px;"">HEADBAND<span style=""color: #ff0000; padding-left: 50px; padding-right: 50px;""> ? </span>XEROX</h1>",65,"0,68",0
null,,,html-keyboard-response,215,855647,0.0-215.0,"<h1 style=""font-size: 35px"">PIGMENT</h1><h1 style=""font-size: 35px; margin-top: 45px;"">FUNGUS</h1>",null,,
691.5,,,html-keyboard-response,216,857096,0.0-216.0,"<h1 style=""font-size: 35px;"">PIGMENT<span style=""color: #ff0000; padding-left: 50px; padding-right: 50px;""> ? </span>BIKE</h1>",65,"0,many",0
null,,,html-keyboard-response,217,861856,0.0-217.0,"<h1 style=""font-size: 35px"">MISSILE</h1><h1 style=""font-size: 35px; margin-top: 45px;"">FLUTE</h1>",null,,
535.83,,,html-keyboard-response,218,863156,0.0-218.0,"<h1 style=""font-size: 35px;"">MISSILE<span style=""color: #ff0000; padding-left: 50px; padding-right: 50px;""> ? </span>ROBOT</h1>",65,"0,16",0
null,,,html-keyboard-response,219,867921,0.0-219.0,"<h1 style=""font-size: 35px"">CHEST</h1><h1 style=""font-size: 35px; margin-top: 45px;"">SPACE</h1>",null,,
1409.305,,,html-keyboard-response,220,870094,0.0-220.0,"<h1 style=""font-size: 35px;"">ARMY<span style=""color: #ff0000; padding-left: 50px; padding-right: 50px;""> ? </span>SHORTS</h1>",65,"68,many",1
null,,,html-keyboard-response,221,874862,0.0-221.0,"<h1 style=""font-size: 35px"">FIREMAN</h1><h1 style=""font-size: 35px; margin-top: 45px;"">SHELF</h1>",null,,
973.055,,,html-keyboard-response,222,876591,0.0-222.0,"<h1 style=""font-size: 35px;"">CHEST<span style=""color: #ff0000; padding-left: 50px; padding-right: 50px;""> ? </span>DAISY</h1>",65,"2,68",0
3730.59,"{""name"":""Ricardo""}",NAME,survey-html-form,0,3738,0.0-0.0-0.0,,,,
2472.415,,,html-keyboard-response,1,6415,0.0-1.0,Welcome to the <strong>Judgment of Recency</strong> experiment! <p>Press the Space Bar to see the instructions.</p>,32,,
25162.69,,,html-keyboard-response,2,31782,0.0-2.0,"<p>In this experiment, you will encounter a number of study and question cards.<p>The <strong>study cards</strong> will have two words on it. Take note of these words; you will be asked to judge how recently you have seen them. You will have four seconds to look at the study card.</p><p>The <strong>question cards</strong> will also show you two words (with a red question mark between the words to show that it is a question card). When you encounter a question card, indicate which of the two words shown have been seen on a study card most recently. If a word has not been seen on a study card yet, treat the word as if it occurred a very long time ago. You will indicate which word occurred most recently with the ‘A’ key for the word on the left side and the ‘L’ key for the word on the right side.</p><p>Each word will be seen at most twice: once on a study card and once on a question card.</p><p>Press the Space Bar to begin.</p>",32,,
null,,,html-keyboard-response,3,36541,0.0-3.0,"<h1 style=""font-size: 35px"">CUSTARD</h1><h1 style=""font-size: 35px; margin-top: 45px;"">MESSAGE</h1>",null,,
null,,,html-keyboard-response,4,41299,0.0-4.0,"<h1 style=""font-size: 35px"">FRAGRANCE</h1><h1 style=""font-size: 35px; margin-top: 45px;"">RELISH</h1>",null,,
null,,,html-keyboard-response,5,46053,0.0-5.0,"<h1 style=""font-size: 35px"">CHIPMUNK</h1><h1 style=""font-size: 35px; margin-top: 45px;"">CLOCK</h1>",null,,
null,,,html-keyboard-response,6,50809,0.0-6.0,"<h1 style=""font-size: 35px"">HORNET</h1><h1 style=""font-size: 35px; margin-top: 45px;"">PORTRAIT</h1>",null,,
null,,,html-keyboard-response,7,55566,0.0-7.0,"<h1 style=""font-size: 35px"">KETCHUP</h1><h1 style=""font-size: 35px; margin-top: 45px;"">RECORD</h1>",null,,
null,,,html-keyboard-response,8,60322,0.0-8.0,"<h1 style=""font-size: 35px"">PRIMATE</h1><h1 style=""font-size: 35px; margin-top: 45px;"">HOOK</h1>",null,,
null,,,html-keyboard-response,9,65081,0.0-9.0,"<h1 style=""font-size: 35px"">COBRA</h1><h1 style=""font-size: 35px; margin-top: 45px;"">BEAST</h1>",null,,
1909.35,,,html-keyboard-response,10,67743,0.0-10.0,"<h1 style=""font-size: 35px;"">PEANUT<span style=""color: #ff0000; padding-left: 50px; padding-right: 50px;""> ? </span>PORTRAIT</h1>",76,,
null,,,html-keyboard-response,11,72499,0.0-11.0,"<h1 style=""font-size: 35px"">MUFFIN</h1><h1 style=""font-size: 35px; margin-top: 45px;"">ROD</h1>",null,,
2448.64,,,html-keyboard-response,12,75704,0.0-12.0,"<h1 style=""font-size: 35px;"">FRAGRANCE<span style=""color: #ff0000; padding-left: 50px; padding-right: 50px;""> ? </span>HORNET</h1>",76,,
null,,,html-keyboard-response,13,80468,0.0-13.0,"<h1 style=""font-size: 35px"">SCARECROW</h1><h1 style=""font-size: 35px; margin-top: 45px;"">BOYFRIEND</h1>",null,,
1779.935,,,html-keyboard-response,14,82999,0.0-14.0,"<h1 style=""font-size: 35px;"">BEAST<span style=""color: #ff0000; padding-left: 50px; padding-right: 50px;""> ? </span>HOOK</h1>",65,,
null,,,html-keyboard-response,15,87757,0.0-15.0,"<h1 style=""font-size: 35px"">GROUND</h1><h1 style=""font-size: 35px; margin-top: 45px;"">SODA</h1>",null,,
3294.92,,,html-keyboard-response,16,91807,0.0-16.0,"<h1 style=""font-size: 35px;"">RECORD<span style=""color: #ff0000; padding-left: 50px; padding-right: 50px;""> ? </span>CASKET</h1>",65,,
null,,,html-keyboard-response,17,96565,0.0-17.0,"<h1 style=""font-size: 35px"">HOUND</h1><h1 style=""font-size: 35px; margin-top: 45px;"">TEACHER</h1>",null,,
2361.1,,,html-keyboard-response,18,99679,0.0-18.0,"<h1 style=""font-size: 35px;"">PRIMATE<span style=""color: #ff0000; padding-left: 50px; padding-right: 50px;""> ? </span>BOYFRIEND</h1>",76,,
null,,,html-keyboard-response,19,104440,0.0-19.0,"<h1 style=""font-size: 35px"">FLOWER</h1><h1 style=""font-size: 35px; margin-top: 45px;"">CRIB</h1>",null,,
2163.49,,,html-keyboard-response,20,107359,0.0-20.0,"<h1 style=""font-size: 35px;"">HOUND<span style=""color: #ff0000; padding-left: 50px; padding-right: 50px;""> ? </span>KETCHUP</h1>",65,,
null,,,html-keyboard-response,21,112113,0.0-21.0,"<h1 style=""font-size: 35px"">CHEMIST</h1><h1 style=""font-size: 35px; margin-top: 45px;"">WORLD</h1>",null,,
1970.605,,,html-keyboard-response,22,114840,0.0-22.0,"<h1 style=""font-size: 35px;"">RELISH<span style=""color: #ff0000; padding-left: 50px; padding-right: 50px;""> ? </span>WORLD</h1>",76,,
null,,,html-keyboard-response,23,119593,0.0-23.0,"<h1 style=""font-size: 35px"">PILOT</h1><h1 style=""font-size: 35px; margin-top: 45px;"">HANDBAG</h1>",null,,
3612.74,,,html-keyboard-response,24,123960,0.0-24.0,"<h1 style=""font-size: 35px;"">BATHTUB<span style=""color: #ff0000; padding-left: 50px; padding-right: 50px;""> ? </span>ROD</h1>",65,,
null,,,html-keyboard-response,25,128719,0.0-25.0,"<h1 style=""font-size: 35px"">COCKTAIL</h1><h1 style=""font-size: 35px; margin-top: 45px;"">JAPAN</h1>",null,,
2093.895,,,html-keyboard-response,26,131568,0.0-26.0,"<h1 style=""font-size: 35px;"">MUFFIN<span style=""color: #ff0000; padding-left: 50px; padding-right: 50px;""> ? </span>JAPAN</h1>",76,,
null,,,html-keyboard-response,27,136327,0.0-27.0,"<h1 style=""font-size: 35px"">SERVANT</h1><h1 style=""font-size: 35px; margin-top: 45px;"">FRUIT</h1>",null,,
1997.85,,,html-keyboard-response,28,139080,0.0-28.0,"<h1 style=""font-size: 35px;"">CUSTARD<span style=""color: #ff0000; padding-left: 50px; padding-right: 50px;""> ? </span>COCKTAIL</h1>",76,,
null,,,html-keyboard-response,29,143839,0.0-29.0,"<h1 style=""font-size: 35px"">SLOPE</h1><h1 style=""font-size: 35px; margin-top: 45px;"">BIKE</h1>",null,,
2009.26,,,html-keyboard-response,30,146600,0.0-30.0,"<h1 style=""font-size: 35px;"">FRUIT<span style=""color: #ff0000; padding-left: 50px; padding-right: 50px;""> ? </span>XEROX</h1>",65,,
null,,,html-keyboard-response,31,151357,0.0-31.0,"<h1 style=""font-size: 35px"">DENTIST</h1><h1 style=""font-size: 35px; margin-top: 45px;"">OX</h1>",null,,
139.135,,,html-keyboard-response,32,152248,0.0-32.0,"<h1 style=""font-size: 35px;"">SODA<span style=""color: #ff0000; padding-left: 50px; padding-right: 50px;""> ? </span>CHIPMUNK</h1>",76,,
null,,,html-keyboard-response,33,157002,0.0-33.0,"<h1 style=""font-size: 35px"">EAGLE</h1><h1 style=""font-size: 35px; margin-top: 45px;"">MOP</h1>",null,,
2463.38,,,html-keyboard-response,34,160217,0.0-34.0,"<h1 style=""font-size: 35px;"">CRIB<span style=""color: #ff0000; padding-left: 50px; padding-right: 50px;""> ? </span>GROUND</h1>",65,,
null,,,html-keyboard-response,35,164974,0.0-35.0,"<h1 style=""font-size: 35px"">SCARF</h1><h1 style=""font-size: 35px; margin-top: 45px;"">BANK</h1>",null,,
2442.915,,,html-keyboard-response,36,168168,0.0-36.0,"<h1 style=""font-size: 35px;"">CHEMIST<span style=""color: #ff0000; padding-left: 50px; padding-right: 50px;""> ? </span>SCARF</h1>",65,,
null,,,html-keyboard-response,37,172922,0.0-37.0,"<h1 style=""font-size: 35px"">SHOULDER</h1><h1 style=""font-size: 35px; margin-top: 45px;"">FLIPPER</h1>",null,,
1446.25,,,html-keyboard-response,38,175120,0.0-38.0,"<h1 style=""font-size: 35px;"">MEAT<span style=""color: #ff0000; padding-left: 50px; padding-right: 50px;""> ? </span>BANK</h1>",76,,
null,,,html-keyboard-response,39,179880,0.0-39.0,"<h1 style=""font-size: 35px"">CRUTCH</h1><h1 style=""font-size: 35px; margin-top: 45px;"">OFFICE</h1>",null,,
7764.985,,,html-keyboard-response,40,188401,0.0-40.0,"<h1 style=""font-size: 35px;"">MESSAGE<span style=""color: #ff0000; padding-left: 50px; padding-right: 50px;""> ? </span>PILOT</h1>",76,,
null,,,html-keyboard-response,41,193159,0.0-41.0,"<h1 style=""font-size: 35px"">FLEET</h1><h1 style=""font-size: 35px; margin-top: 45px;"">SCOTCH</h1>",null,,
2160.665,,,html-keyboard-response,42,196073,0.0-42.0,"<h1 style=""font-size: 35px;"">EAGLE<span style=""color: #ff0000; padding-left: 50px; padding-right: 50px;""> ? </span>OX</h1>",76,,
null,,,html-keyboard-response,43,200832,0.0-43.0,"<h1 style=""font-size: 35px"">OZONE</h1><h1 style=""font-size: 35px; margin-top: 45px;"">LUNCH</h1>",null,,
1377.535,,,html-keyboard-response,44,202961,0.0-44.0,"<h1 style=""font-size: 35px;"">OZONE<span style=""color: #ff0000; padding-left: 50px; padding-right: 50px;""> ? </span>WITNESS</h1>",65,,
null,,,html-keyboard-response,45,207721,0.0-45.0,"<h1 style=""font-size: 35px"">PASTRY</h1><h1 style=""font-size: 35px; margin-top: 45px;"">MISSILE</h1>",null,,
3573.875,,,html-keyboard-response,46,212049,0.0-46.0,"<h1 style=""font-size: 35px;"">BIKE<span style=""color: #ff0000; padding-left: 50px; padding-right: 50px;""> ? </span>SCOTCH</h1>",65,,
null,,,html-keyboard-response,47,216805,0.0-47.0,"<h1 style=""font-size: 35px"">CITRUS</h1><h1 style=""font-size: 35px; margin-top: 45px;"">HIGHWAY</h1>",null,,
1536.42,,,html-keyboard-response,48,219097,0.0-48.0,"<h1 style=""font-size: 35px;"">OFFICE<span style=""color: #ff0000; padding-left: 50px; padding-right: 50px;""> ? </span>CITRUS</h1>",76,,
null,,,html-keyboard-response,49,223858,0.0-49.0,"<h1 style=""font-size: 35px"">APPLE</h1><h1 style=""font-size: 35px; margin-top: 45px;"">ACTOR</h1>",null,,
2443.63,,,html-keyboard-response,50,227057,0.0-50.0,"<h1 style=""font-size: 35px;"">ACTOR<span style=""color: #ff0000; padding-left: 50px; padding-right: 50px;""> ? </span>HIGHWAY</h1>",65,,
null,,,html-keyboard-response,51,231811,0.0-51.0,"<h1 style=""font-size: 35px"">POPCORN</h1><h1 style=""font-size: 35px; margin-top: 45px;"">RUG</h1>",null,,
1058.145,,,html-keyboard-response,52,233626,0.0-52.0,"<h1 style=""font-size: 35px;"">BRACES<span style=""color: #ff0000; padding-left: 50px; padding-right: 50px;""> ? </span>POPCORN</h1>",76,,
null,,,html-keyboard-response,53,238380,0.0-53.0,"<h1 style=""font-size: 35px"">CLIMBER</h1><h1 style=""font-size: 35px; margin-top: 45px;"">FILM</h1>",null,,
1334.535,,,html-keyboard-response,54,240466,0.0-54.0,"<h1 style=""font-size: 35px;"">LUNCH<span style=""color: #ff0000; padding-left: 50px; padding-right: 50px;""> ? </span>FILM</h1>",76,,
null,,,html-keyboard-response,55,245224,0.0-55.0,"<h1 style=""font-size: 35px"">BRICK</h1><h1 style=""font-size: 35px; margin-top: 45px;"">BUTCHER</h1>",null,,
1198,,,html-keyboard-response,56,247178,0.0-56.0,"<h1 style=""font-size: 35px;"">BRICK<span style=""color: #ff0000; padding-left: 50px; padding-right: 50px;""> ? </span>SHOULDER</h1>",65,,
null,,,html-keyboard-response,57,251936,0.0-57.0,"<h1 style=""font-size: 35px"">NAPKIN</h1><h1 style=""font-size: 35px; margin-top: 45px;"">GALLON</h1>",null,,
909.935,,,html-keyboard-response,58,253602,0.0-58.0,"<h1 style=""font-size: 35px;"">NAPKIN<span style=""color: #ff0000; padding-left: 50px; padding-right: 50px;""> ? </span>RADISH</h1>",65,,
null,,,html-keyboard-response,59,258363,0.0-59.0,"<h1 style=""font-size: 35px"">WHISKERS</h1><h1 style=""font-size: 35px; margin-top: 45px;"">FRIAR</h1>",null,,
1925.795,,,html-keyboard-response,60,261042,0.0-60.0,"<h1 style=""font-size: 35px;"">SLOPE<span style=""color: #ff0000; padding-left: 50px; padding-right: 50px;""> ? </span>RUG</h1>",76,,
null,,,html-keyboard-response,61,265800,0.0-61.0,"<h1 style=""font-size: 35px"">BARLEY</h1><h1 style=""font-size: 35px; margin-top: 45px;"">LUMBER</h1>",null,,
1162.315,,,html-keyboard-response,62,267714,0.0-62.0,"<h1 style=""font-size: 35px;"">BUTCHER<span style=""color: #ff0000; padding-left: 50px; padding-right: 50px;""> ? </span>MISSILE</h1>",65,,
null,,,html-keyboard-response,63,272473,0.0-63.0,"<h1 style=""font-size: 35px"">LADY</h1><h1 style=""font-size: 35px; margin-top: 45px;"">LODGE</h1>",null,,
984.13,,,html-keyboard-response,64,274211,0.0-64.0,"<h1 style=""font-size: 35px;"">LUMBER<span style=""color: #ff0000; padding-left: 50px; padding-right: 50px;""> ? </span>LODGE</h1>",76,,
null,,,html-keyboard-response,65,278969,0.0-65.0,"<h1 style=""font-size: 35px"">CATCHER</h1><h1 style=""font-size: 35px; margin-top: 45px;"">HARP</h1>",null,,
2533.69,,,html-keyboard-response,66,282259,0.0-66.0,"<h1 style=""font-size: 35px;"">THREAD<span style=""color: #ff0000; padding-left: 50px; padding-right: 50px;""> ? </span>CRUTCH</h1>",76,,
null,,,html-keyboard-response,67,287011,0.0-67.0,"<h1 style=""font-size: 35px"">JOURNAL</h1><h1 style=""font-size: 35px; margin-top: 45px;"">JUDGE</h1>",null,,
1848.21,,,html-keyboard-response,68,289611,0.0-68.0,"<h1 style=""font-size: 35px;"">CATCHER<span style=""color: #ff0000; padding-left: 50px; padding-right: 50px;""> ? </span>LADY</h1>",65,,
null,,,html-keyboard-response,69,294370,0.0-69.0,"<h1 style=""font-size: 35px"">CLOTHES</h1><h1 style=""font-size: 35px; margin-top: 45px;"">DOUGHNUT</h1>",null,,
2167.56,,,html-keyboard-response,70,297291,0.0-70.0,"<h1 style=""font-size: 35px;"">DOUGHNUT<span style=""color: #ff0000; padding-left: 50px; padding-right: 50px;""> ? </span>FRIAR</h1>",65,,
null,,,html-keyboard-response,71,302052,0.0-71.0,"<h1 style=""font-size: 35px"">BURGLAR</h1><h1 style=""font-size: 35px; margin-top: 45px;"">OINTMENT</h1>",null,,
1867.675,,,html-keyboard-response,72,304675,0.0-72.0,"<h1 style=""font-size: 35px;"">JOURNAL<span style=""color: #ff0000; padding-left: 50px; padding-right: 50px;""> ? </span>PISTON</h1>",65,,
null,,,html-keyboard-response,73,309430,0.0-73.0,"<h1 style=""font-size: 35px"">COOK</h1><h1 style=""font-size: 35px; margin-top: 45px;"">ZIPPER</h1>",null,,
4440.805,,,html-keyboard-response,74,314627,0.0-74.0,"<h1 style=""font-size: 35px;"">GALLON<span style=""color: #ff0000; padding-left: 50px; padding-right: 50px;""> ? </span>ORCHID</h1>",65,"16,many",0
null,,,html-keyboard-response,75,319380,0.0-75.0,"<h1 style=""font-size: 35px"">BRANCH</h1><h1 style=""font-size: 35px; margin-top: 45px;"">HAWK</h1>",null,,
907.595,,,html-keyboard-response,76,321043,0.0-76.0,"<h1 style=""font-size: 35px;"">BRANCH<span style=""color: #ff0000; padding-left: 50px; padding-right: 50px;""> ? </span>WHISKERS</h1>",65,"0,16",0
null,,,html-keyboard-response,77,325800,0.0-77.0,"<h1 style=""font-size: 35px"">PLUTO</h1><h1 style=""font-size: 35px; margin-top: 45px;"">GIFT</h1>",null,,
1312.7,,,html-keyboard-response,78,327868,0.0-78.0,"<h1 style=""font-size: 35px;"">LIVER<span style=""color: #ff0000; padding-left: 50px; padding-right: 50px;""> ? </span>COBRA</h1>",76,"68,many",1
null,,,html-keyboard-response,79,332623,0.0-79.0,"<h1 style=""font-size: 35px"">SHRUB</h1><h1 style=""font-size: 35px; margin-top: 45px;"">ROOSTER</h1>",null,,
3344.875,,,html-keyboard-response,80,336724,0.0-80.0,"<h1 style=""font-size: 35px;"">FLASK<span style=""color: #ff0000; padding-left: 50px; padding-right: 50px;""> ? </span>PLUTO</h1>",76,"2,many",1
null,,,html-keyboard-response,81,341479,0.0-81.0,"<h1 style=""font-size: 35px"">ITEM</h1><h1 style=""font-size: 35px; margin-top: 45px;"">BLADE</h1>",null,,
3390.435,,,html-keyboard-response,82,345620,0.0-82.0,"<h1 style=""font-size: 35px;"">GIFT<span style=""color: #ff0000; padding-left: 50px; padding-right: 50px;""> ? </span>SHRUB</h1>",76,"2,4",1
null,,,html-keyboard-response,83,350375,0.0-83.0,"<h1 style=""font-size: 35px"">BANJO</h1><h1 style=""font-size: 35px; margin-top: 45px;"">SPONGE</h1>",null,,
1354.125,,,html-keyboard-response,84,352484,0.0-84.0,"<h1 style=""font-size: 35px;"">ITEM<span style=""color: #ff0000; padding-left: 50px; padding-right: 50px;""> ? </span>JUDGE</h1>",76,"2,16",0
null,,,html-keyboard-response,85,357242,0.0-85.0,"<h1 style=""font-size: 35px"">CANDY</h1><h1 style=""font-size: 35px; margin-top: 45px;"">GYMNAST</h1>",null,,
1245.79,,,html-keyboard-response,86,359244,0.0-86.0,"<h1 style=""font-size: 35px;"">BLADE<span style=""color: #ff0000; padding-left: 50px; padding-right: 50px;""> ? </span>TEACHER</h1>",65,"4,68",0
null,,,html-keyboard-response,87,364003,0.0-87.0,"<h1 style=""font-size: 35px"">JELLY</h1><h1 style=""font-size: 35px; margin-top: 45px;"">COUNTRY</h1>",null,,
1320.775,,,html-keyboard-response,88,366076,0.0-88.0,"<h1 style=""font-size: 35px;"">CANDY<span style=""color: #ff0000; padding-left: 50px; padding-right: 50px;""> ? </span>FLOWER</h1>",65,"2,68",0
null,,,html-keyboard-response,89,370834,0.0-89.0,"<h1 style=""font-size: 35px"">KEEPER</h1><h1 style=""font-size: 35px; margin-top: 45px;"">COURSE</h1>",null,,
1567.78,,,html-keyboard-response,90,373156,0.0-90.0,"<h1 style=""font-size: 35px;"">NIGHTGOWN<span style=""color: #ff0000; padding-left: 50px; padding-right: 50px;""> ? </span>KEEPER</h1>",76,"0,many",1
null,,,html-keyboard-response,91,377908,0.0-91.0,"<h1 style=""font-size: 35px"">MAILMAN</h1><h1 style=""font-size: 35px; margin-top: 45px;"">TUBA</h1>",null,,
15581.81,,,html-keyboard-response,92,394244,0.0-92.0,"<h1 style=""font-size: 35px;"">HAWK<span style=""color: #ff0000; padding-left: 50px; padding-right: 50px;""> ? </span>HANDBAG</h1>",65,"16,68",0
null,,,html-keyboard-response,93,399001,0.0-93.0,"<h1 style=""font-size: 35px"">TYPIST</h1><h1 style=""font-size: 35px; margin-top: 45px;"">SPOOL</h1>",null,,
4007.45,,,html-keyboard-response,94,403765,0.0-94.0,"<h1 style=""font-size: 35px;"">MAILMAN<span style=""color: #ff0000; padding-left: 50px; padding-right: 50px;""> ? </span>TYPIST</h1>",76,"0,2",1
null,,,html-keyboard-response,95,408523,0.0-95.0,"<h1 style=""font-size: 35px"">BUGGY</h1><h1 style=""font-size: 35px; margin-top: 45px;"">HORSE</h1>",null,,
805.82,,,html-keyboard-response,96,410085,0.0-96.0,"<h1 style=""font-size: 35px;"">BUGGY<span style=""color: #ff0000; padding-left: 50px; padding-right: 50px;""> ? </span>SERVANT</h1>",65,"0,68",0
null,,,html-keyboard-response,97,414839,0.0-97.0,"<h1 style=""font-size: 35px"">BINDER</h1><h1 style=""font-size: 35px; margin-top: 45px;"">YARN</h1>",null,,
1556.37,,,html-keyboard-response,98,417149,0.0-98.0,"<h1 style=""font-size: 35px;"">SPOOL<span style=""color: #ff0000; padding-left: 50px; padding-right: 50px;""> ? </span>PEDAL</h1>",65,"4,many",0
null,,,html-keyboard-response,99,421906,0.0-99.0,"<h1 style=""font-size: 35px"">TABLET</h1><h1 style=""font-size: 35px; margin-top: 45px;"">SILK</h1>",null,,
1432.53,,,html-keyboard-response,100,424093,0.0-100.0,"<h1 style=""font-size: 35px;"">BANJO<span style=""color: #ff0000; padding-left: 50px; padding-right: 50px;""> ? </span>HORSE</h1>",76,"4,16",1
null,,,html-keyboard-response,101,428851,0.0-101.0,"<h1 style=""font-size: 35px"">MARKET</h1><h1 style=""font-size: 35px; margin-top: 45px;"">GUARD</h1>",null,,
