"rt","responses","type","trial_type","trial_index","time_elapsed","internal_node_id","stimulus","key_press","comparison_type","correct_side"
"8772","{""name"":""Hokua_real""}","NAME","survey-html-form","0","8780","0.0-0.0-0.0","","","",""
"6251","","","html-keyboard-response","1","15238","0.0-1.0","Welcome to the <strong>Judgment of Recency</strong> experiment! <p>Press the Space Bar to see the instructions.</p>","32","",""
"27592","","","html-keyboard-response","2","43033","0.0-2.0","<p>In this experiment, you will encounter a number of study and question cards.<p>The <strong>study cards</strong> will have two words on it. Take note of these words; you will be asked to judge how recently you have seen them. You will have four seconds to look at the study card.</p><p>The <strong>question cards</strong> will also show you two words (with a red question mark between the words to show that it is a question card). When you encounter a question card, indicate which of the two words shown have been seen on a study card most recently. If a word has not been seen on a study card yet, treat the word as if it occurred a very long time ago. You will indicate which word occurred most recently with the ‘A’ key for the word on the left side and the ‘L’ key for the word on the right side.</p><p>Each word will be seen at most twice: once on a study card and once on a question card.</p><p>Press the Space Bar to begin.</p>","32","",""
"null","","","html-keyboard-response","3","47785","0.0-3.0","<h1 style=""font-size: 35px"">FRAME</h1><h1 style=""font-size: 35px; margin-top: 45px;"">BEEF</h1>","null","",""
"null","","","html-keyboard-response","4","52539","0.0-4.0","<h1 style=""font-size: 35px"">TROMBONE</h1><h1 style=""font-size: 35px; margin-top: 45px;"">APPLE</h1>","null","",""
"null","","","html-keyboard-response","5","57294","0.0-5.0","<h1 style=""font-size: 35px"">AUTHOR</h1><h1 style=""font-size: 35px; margin-top: 45px;"">GARDEN</h1>","null","",""
"null","","","html-keyboard-response","6","62049","0.0-6.0","<h1 style=""font-size: 35px"">CHIPMUNK</h1><h1 style=""font-size: 35px; margin-top: 45px;"">IGLOO</h1>","null","",""
"null","","","html-keyboard-response","7","66807","0.0-7.0","<h1 style=""font-size: 35px"">INFANT</h1><h1 style=""font-size: 35px; margin-top: 45px;"">SWORD</h1>","null","",""
"null","","","html-keyboard-response","8","71561","0.0-8.0","<h1 style=""font-size: 35px"">TRUCK</h1><h1 style=""font-size: 35px; margin-top: 45px;"">TWEEZERS</h1>","null","",""
"null","","","html-keyboard-response","9","76315","0.0-9.0","<h1 style=""font-size: 35px"">COUNTRY</h1><h1 style=""font-size: 35px; margin-top: 45px;"">SKILLET</h1>","null","",""
"2698","","","html-keyboard-response","10","79766","0.0-10.0","<h1 style=""font-size: 35px;"">CROWN<span style=""color: #ff0000; padding-left: 50px; padding-right: 50px;""> ? </span>IGLOO</h1>","65","",""
"null","","","html-keyboard-response","11","84523","0.0-11.0","<h1 style=""font-size: 35px"">CABIN</h1><h1 style=""font-size: 35px; margin-top: 45px;"">BOARD</h1>","null","",""
"10098","","","html-keyboard-response","12","95374","0.0-12.0","<h1 style=""font-size: 35px;"">TROMBONE<span style=""color: #ff0000; padding-left: 50px; padding-right: 50px;""> ? </span>CHIPMUNK</h1>","76","",""
"null","","","html-keyboard-response","13","100131","0.0-13.0","<h1 style=""font-size: 35px"">COUNTY</h1><h1 style=""font-size: 35px; margin-top: 45px;"">ISLAND</h1>","null","",""
"1716","","","html-keyboard-response","14","102598","0.0-14.0","<h1 style=""font-size: 35px;"">SKILLET<span style=""color: #ff0000; padding-left: 50px; padding-right: 50px;""> ? </span>TWEEZERS</h1>","76","",""
"null","","","html-keyboard-response","15","107355","0.0-15.0","<h1 style=""font-size: 35px"">WHISKERS</h1><h1 style=""font-size: 35px; margin-top: 45px;"">WITNESS</h1>","null","",""
"1504","","","html-keyboard-response","16","109612","0.0-16.0","<h1 style=""font-size: 35px;"">SWORD<span style=""color: #ff0000; padding-left: 50px; padding-right: 50px;""> ? </span>PLIERS</h1>","76","",""
"null","","","html-keyboard-response","17","114364","0.0-17.0","<h1 style=""font-size: 35px"">RUST</h1><h1 style=""font-size: 35px; margin-top: 45px;"">RAZOR</h1>","null","",""
"2293","","","html-keyboard-response","18","117411","0.0-18.0","<h1 style=""font-size: 35px;"">TRUCK<span style=""color: #ff0000; padding-left: 50px; padding-right: 50px;""> ? </span>ISLAND</h1>","76","",""
"null","","","html-keyboard-response","19","122168","0.0-19.0","<h1 style=""font-size: 35px"">VIRUS</h1><h1 style=""font-size: 35px; margin-top: 45px;"">SPHINX</h1>","null","",""
"940","","","html-keyboard-response","20","123861","0.0-20.0","<h1 style=""font-size: 35px;"">RUST<span style=""color: #ff0000; padding-left: 50px; padding-right: 50px;""> ? </span>INFANT</h1>","65","",""
"null","","","html-keyboard-response","21","128614","0.0-21.0","<h1 style=""font-size: 35px"">PORK</h1><h1 style=""font-size: 35px; margin-top: 45px;"">GOBLIN</h1>","null","",""
"814","","","html-keyboard-response","22","130180","0.0-22.0","<h1 style=""font-size: 35px;"">APPLE<span style=""color: #ff0000; padding-left: 50px; padding-right: 50px;""> ? </span>GOBLIN</h1>","76","",""
"null","","","html-keyboard-response","23","134936","0.0-23.0","<h1 style=""font-size: 35px"">SLUG</h1><h1 style=""font-size: 35px; margin-top: 45px;"">BURGLAR</h1>","null","",""
"1834","","","html-keyboard-response","24","137523","0.0-24.0","<h1 style=""font-size: 35px;"">HIKER<span style=""color: #ff0000; padding-left: 50px; padding-right: 50px;""> ? </span>BOARD</h1>","76","",""
"null","","","html-keyboard-response","25","142277","0.0-25.0","<h1 style=""font-size: 35px"">FREEZER</h1><h1 style=""font-size: 35px; margin-top: 45px;"">TART</h1>","null","",""
"2036","","","html-keyboard-response","26","145067","0.0-26.0","<h1 style=""font-size: 35px;"">CABIN<span style=""color: #ff0000; padding-left: 50px; padding-right: 50px;""> ? </span>TART</h1>","76","",""
"null","","","html-keyboard-response","27","149822","0.0-27.0","<h1 style=""font-size: 35px"">CRAB</h1><h1 style=""font-size: 35px; margin-top: 45px;"">STICKER</h1>","null","",""
"3405","","","html-keyboard-response","28","153978","0.0-28.0","<h1 style=""font-size: 35px;"">FRAME<span style=""color: #ff0000; padding-left: 50px; padding-right: 50px;""> ? </span>FREEZER</h1>","76","",""
"null","","","html-keyboard-response","29","158733","0.0-29.0","<h1 style=""font-size: 35px"">CONCERT</h1><h1 style=""font-size: 35px; margin-top: 45px;"">DRINK</h1>","null","",""
"2512","","","html-keyboard-response","30","161996","0.0-30.0","<h1 style=""font-size: 35px;"">STICKER<span style=""color: #ff0000; padding-left: 50px; padding-right: 50px;""> ? </span>COWBOY</h1>","76","",""
"null","","","html-keyboard-response","31","166751","0.0-31.0","<h1 style=""font-size: 35px"">SALT</h1><h1 style=""font-size: 35px; margin-top: 45px;"">WORLD</h1>","null","",""
"2441","","","html-keyboard-response","32","169943","0.0-32.0","<h1 style=""font-size: 35px;"">WITNESS<span style=""color: #ff0000; padding-left: 50px; padding-right: 50px;""> ? </span>AUTHOR</h1>","65","",""
"null","","","html-keyboard-response","33","174695","0.0-33.0","<h1 style=""font-size: 35px"">LEOPARD</h1><h1 style=""font-size: 35px; margin-top: 45px;"">LODGE</h1>","null","",""
"2947","","","html-keyboard-response","34","178395","0.0-34.0","<h1 style=""font-size: 35px;"">SPHINX<span style=""color: #ff0000; padding-left: 50px; padding-right: 50px;""> ? </span>WHISKERS</h1>","76","",""
"null","","","html-keyboard-response","35","183146","0.0-35.0","<h1 style=""font-size: 35px"">LIVER</h1><h1 style=""font-size: 35px; margin-top: 45px;"">MASK</h1>","null","",""
"1564","","","html-keyboard-response","36","185462","0.0-36.0","<h1 style=""font-size: 35px;"">PORK<span style=""color: #ff0000; padding-left: 50px; padding-right: 50px;""> ? </span>LIVER</h1>","76","",""
"null","","","html-keyboard-response","37","190218","0.0-37.0","<h1 style=""font-size: 35px"">CATTLE</h1><h1 style=""font-size: 35px; margin-top: 45px;"">CREVICE</h1>","null","",""
"1959","","","html-keyboard-response","38","192930","0.0-38.0","<h1 style=""font-size: 35px;"">BULLET<span style=""color: #ff0000; padding-left: 50px; padding-right: 50px;""> ? </span>MASK</h1>","76","",""
"null","","","html-keyboard-response","39","197685","0.0-39.0","<h1 style=""font-size: 35px"">WASP</h1><h1 style=""font-size: 35px; margin-top: 45px;"">JUGGLER</h1>","null","",""
"1688","","","html-keyboard-response","40","200124","0.0-40.0","<h1 style=""font-size: 35px;"">BEEF<span style=""color: #ff0000; padding-left: 50px; padding-right: 50px;""> ? </span>SLUG</h1>","65","",""
"null","","","html-keyboard-response","41","204881","0.0-41.0","<h1 style=""font-size: 35px"">SCALPEL</h1><h1 style=""font-size: 35px; margin-top: 45px;"">HEDGE</h1>","null","",""
"1207","","","html-keyboard-response","42","206840","0.0-42.0","<h1 style=""font-size: 35px;"">LEOPARD<span style=""color: #ff0000; padding-left: 50px; padding-right: 50px;""> ? </span>WORLD</h1>","65","",""
"null","","","html-keyboard-response","43","211593","0.0-43.0","<h1 style=""font-size: 35px"">SALAD</h1><h1 style=""font-size: 35px; margin-top: 45px;"">DRAGON</h1>","null","",""
"1381","","","html-keyboard-response","44","213727","0.0-44.0","<h1 style=""font-size: 35px;"">SALAD<span style=""color: #ff0000; padding-left: 50px; padding-right: 50px;""> ? </span>FLASK</h1>","65","",""
"null","","","html-keyboard-response","45","218481","0.0-45.0","<h1 style=""font-size: 35px"">SHELTER</h1><h1 style=""font-size: 35px; margin-top: 45px;"">BATHTUB</h1>","null","",""
"1674","","","html-keyboard-response","46","220907","0.0-46.0","<h1 style=""font-size: 35px;"">DRINK<span style=""color: #ff0000; padding-left: 50px; padding-right: 50px;""> ? </span>HEDGE</h1>","76","",""
"null","","","html-keyboard-response","47","225662","0.0-47.0","<h1 style=""font-size: 35px"">GAZELLE</h1><h1 style=""font-size: 35px; margin-top: 45px;"">FUNGUS</h1>","null","",""
"926","","","html-keyboard-response","48","227342","0.0-48.0","<h1 style=""font-size: 35px;"">JUGGLER<span style=""color: #ff0000; padding-left: 50px; padding-right: 50px;""> ? </span>GAZELLE</h1>","76","",""
"null","","","html-keyboard-response","49","232094","0.0-49.0","<h1 style=""font-size: 35px"">GRAVEL</h1><h1 style=""font-size: 35px; margin-top: 45px;"">CHAUFFEUR</h1>","null","",""
"878","","","html-keyboard-response","50","233729","0.0-50.0","<h1 style=""font-size: 35px;"">CHAUFFEUR<span style=""color: #ff0000; padding-left: 50px; padding-right: 50px;""> ? </span>FUNGUS</h1>","65","",""
"null","","","html-keyboard-response","51","238483","0.0-51.0","<h1 style=""font-size: 35px"">CHEST</h1><h1 style=""font-size: 35px; margin-top: 45px;"">NURSE</h1>","null","",""
"1032","","","html-keyboard-response","52","240265","0.0-52.0","<h1 style=""font-size: 35px;"">LACE<span style=""color: #ff0000; padding-left: 50px; padding-right: 50px;""> ? </span>CHEST</h1>","76","",""
"null","","","html-keyboard-response","53","245020","0.0-53.0","<h1 style=""font-size: 35px"">CLIMBER</h1><h1 style=""font-size: 35px; margin-top: 45px;"">PICTURE</h1>","null","",""
"753","","","html-keyboard-response","54","246526","0.0-54.0","<h1 style=""font-size: 35px;"">DRAGON<span style=""color: #ff0000; padding-left: 50px; padding-right: 50px;""> ? </span>PICTURE</h1>","76","",""
"null","","","html-keyboard-response","55","251278","0.0-55.0","<h1 style=""font-size: 35px"">LONDON</h1><h1 style=""font-size: 35px; margin-top: 45px;"">KETCHUP</h1>","null","",""
"749","","","html-keyboard-response","56","252780","0.0-56.0","<h1 style=""font-size: 35px;"">LONDON<span style=""color: #ff0000; padding-left: 50px; padding-right: 50px;""> ? </span>CATTLE</h1>","65","",""
"null","","","html-keyboard-response","57","257537","0.0-57.0","<h1 style=""font-size: 35px"">LABEL</h1><h1 style=""font-size: 35px; margin-top: 45px;"">PRINCESS</h1>","null","",""
"894","","","html-keyboard-response","58","259186","0.0-58.0","<h1 style=""font-size: 35px;"">LABEL<span style=""color: #ff0000; padding-left: 50px; padding-right: 50px;""> ? </span>DOUGHNUT</h1>","65","",""
"null","","","html-keyboard-response","59","263940","0.0-59.0","<h1 style=""font-size: 35px"">ROD</h1><h1 style=""font-size: 35px; margin-top: 45px;"">DORM</h1>","null","",""
"1471","","","html-keyboard-response","60","266163","0.0-60.0","<h1 style=""font-size: 35px;"">CONCERT<span style=""color: #ff0000; padding-left: 50px; padding-right: 50px;""> ? </span>NURSE</h1>","76","",""
"null","","","html-keyboard-response","61","270921","0.0-61.0","<h1 style=""font-size: 35px"">LAMP</h1><h1 style=""font-size: 35px; margin-top: 45px;"">OINTMENT</h1>","null","",""
"1074","","","html-keyboard-response","62","272748","0.0-62.0","<h1 style=""font-size: 35px;"">KETCHUP<span style=""color: #ff0000; padding-left: 50px; padding-right: 50px;""> ? </span>BATHTUB</h1>","65","",""
"null","","","html-keyboard-response","63","277503","0.0-63.0","<h1 style=""font-size: 35px"">HOUND</h1><h1 style=""font-size: 35px; margin-top: 45px;"">FIREMAN</h1>","null","",""
"770","","","html-keyboard-response","64","279026","0.0-64.0","<h1 style=""font-size: 35px;"">OINTMENT<span style=""color: #ff0000; padding-left: 50px; padding-right: 50px;""> ? </span>FIREMAN</h1>","76","",""
"null","","","html-keyboard-response","65","283779","0.0-65.0","<h1 style=""font-size: 35px"">SUNSET</h1><h1 style=""font-size: 35px; margin-top: 45px;"">COFFEE</h1>","null","",""
"1088","","","html-keyboard-response","66","285617","0.0-66.0","<h1 style=""font-size: 35px;"">XEROX<span style=""color: #ff0000; padding-left: 50px; padding-right: 50px;""> ? </span>WASP</h1>","65","",""
"null","","","html-keyboard-response","67","290370","0.0-67.0","<h1 style=""font-size: 35px"">ANTLER</h1><h1 style=""font-size: 35px; margin-top: 45px;"">REPORT</h1>","null","",""
"1519","","","html-keyboard-response","68","292639","0.0-68.0","<h1 style=""font-size: 35px;"">SUNSET<span style=""color: #ff0000; padding-left: 50px; padding-right: 50px;""> ? </span>HOUND</h1>","65","",""
"null","","","html-keyboard-response","69","297393","0.0-69.0","<h1 style=""font-size: 35px"">ICEBERG</h1><h1 style=""font-size: 35px; margin-top: 45px;"">MAILMAN</h1>","null","",""
"1054","","","html-keyboard-response","70","299201","0.0-70.0","<h1 style=""font-size: 35px;"">MAILMAN<span style=""color: #ff0000; padding-left: 50px; padding-right: 50px;""> ? </span>DORM</h1>","65","",""
"null","","","html-keyboard-response","71","303955","0.0-71.0","<h1 style=""font-size: 35px"">ELBOW</h1><h1 style=""font-size: 35px; margin-top: 45px;"">CANDY</h1>","null","",""
"1378","","","html-keyboard-response","72","306086","0.0-72.0","<h1 style=""font-size: 35px;"">ANTLER<span style=""color: #ff0000; padding-left: 50px; padding-right: 50px;""> ? </span>CLAMP</h1>","65","",""
"null","","","html-keyboard-response","73","310840","0.0-73.0","<h1 style=""font-size: 35px"">SHELF</h1><h1 style=""font-size: 35px; margin-top: 45px;"">EXPERT</h1>","null","",""
"2047","","","html-keyboard-response","74","313643","0.0-74.0","<h1 style=""font-size: 35px;"">PRINCESS<span style=""color: #ff0000; padding-left: 50px; padding-right: 50px;""> ? </span>FEMALE</h1>","65","16,many","0"
"null","","","html-keyboard-response","75","318400","0.0-75.0","<h1 style=""font-size: 35px"">PARSLEY</h1><h1 style=""font-size: 35px; margin-top: 45px;"">WINDOW</h1>","null","",""
"1046","","","html-keyboard-response","76","320200","0.0-76.0","<h1 style=""font-size: 35px;"">PARSLEY<span style=""color: #ff0000; padding-left: 50px; padding-right: 50px;""> ? </span>ROD</h1>","65","0,16","0"
"null","","","html-keyboard-response","77","324955","0.0-77.0","<h1 style=""font-size: 35px"">FRAGRANCE</h1><h1 style=""font-size: 35px; margin-top: 45px;"">ZEBRA</h1>","null","",""
"1947","","","html-keyboard-response","78","327655","0.0-78.0","<h1 style=""font-size: 35px;"">POISON<span style=""color: #ff0000; padding-left: 50px; padding-right: 50px;""> ? </span>COUNTRY</h1>","76","68,many","1"
"null","","","html-keyboard-response","79","332407","0.0-79.0","<h1 style=""font-size: 35px"">BIKE</h1><h1 style=""font-size: 35px; margin-top: 45px;"">OUTDOORS</h1>","null","",""
"1688","","","html-keyboard-response","80","334848","0.0-80.0","<h1 style=""font-size: 35px;"">HORNET<span style=""color: #ff0000; padding-left: 50px; padding-right: 50px;""> ? </span>FRAGRANCE</h1>","76","2,many","1"
"null","","","html-keyboard-response","81","339601","0.0-81.0","<h1 style=""font-size: 35px"">BELLY</h1><h1 style=""font-size: 35px; margin-top: 45px;"">BLADE</h1>","null","",""
"2151","","","html-keyboard-response","82","342505","0.0-82.0","<h1 style=""font-size: 35px;"">ZEBRA<span style=""color: #ff0000; padding-left: 50px; padding-right: 50px;""> ? </span>BIKE</h1>","65","2,4","1"
"null","","","html-keyboard-response","83","347257","0.0-83.0","<h1 style=""font-size: 35px"">DRAWING</h1><h1 style=""font-size: 35px; margin-top: 45px;"">TREAT</h1>","null","",""
"2471","","","html-keyboard-response","84","350483","0.0-84.0","<h1 style=""font-size: 35px;"">BELLY<span style=""color: #ff0000; padding-left: 50px; padding-right: 50px;""> ? </span>REPORT</h1>","65","2,16","0"
"null","","","html-keyboard-response","85","355237","0.0-85.0","<h1 style=""font-size: 35px"">BANJO</h1><h1 style=""font-size: 35px; margin-top: 45px;"">CHAMPAGNE</h1>","null","",""
"3121","","","html-keyboard-response","86","359110","0.0-86.0","<h1 style=""font-size: 35px;"">BLADE<span style=""color: #ff0000; padding-left: 50px; padding-right: 50px;""> ? </span>RAZOR</h1>","65","4,68","0"
"null","","","html-keyboard-response","87","363864","0.0-87.0","<h1 style=""font-size: 35px"">COOK</h1><h1 style=""font-size: 35px; margin-top: 45px;"">SCARF</h1>","null","",""
"1565","","","html-keyboard-response","88","366184","0.0-88.0","<h1 style=""font-size: 35px;"">BANJO<span style=""color: #ff0000; padding-left: 50px; padding-right: 50px;""> ? </span>VIRUS</h1>","65","2,68","0"
"null","","","html-keyboard-response","89","370939","0.0-89.0","<h1 style=""font-size: 35px"">DANCER</h1><h1 style=""font-size: 35px; margin-top: 45px;"">RATTLE</h1>","null","",""
"1534","","","html-keyboard-response","90","373225","0.0-90.0","<h1 style=""font-size: 35px;"">HUSBAND<span style=""color: #ff0000; padding-left: 50px; padding-right: 50px;""> ? </span>DANCER</h1>","76","0,many","1"
"null","","","html-keyboard-response","91","377978","0.0-91.0","<h1 style=""font-size: 35px"">COMET</h1><h1 style=""font-size: 35px; margin-top: 45px;"">DRUG</h1>","null","",""
"2474","","","html-keyboard-response","92","381204","0.0-92.0","<h1 style=""font-size: 35px;"">WINDOW<span style=""color: #ff0000; padding-left: 50px; padding-right: 50px;""> ? </span>BURGLAR</h1>","76","16,68","0"
"null","","","html-keyboard-response","93","385959","0.0-93.0","<h1 style=""font-size: 35px"">CLOCK</h1><h1 style=""font-size: 35px; margin-top: 45px;"">DUST</h1>","null","",""
"1933","","","html-keyboard-response","94","388645","0.0-94.0","<h1 style=""font-size: 35px;"">COMET<span style=""color: #ff0000; padding-left: 50px; padding-right: 50px;""> ? </span>CLOCK</h1>","76","0,2","1"
"null","","","html-keyboard-response","95","393400","0.0-95.0","<h1 style=""font-size: 35px"">ORANGE</h1><h1 style=""font-size: 35px; margin-top: 45px;"">GREASE</h1>","null","",""
"990","","","html-keyboard-response","96","395144","0.0-96.0","<h1 style=""font-size: 35px;"">ORANGE<span style=""color: #ff0000; padding-left: 50px; padding-right: 50px;""> ? </span>CRAB</h1>","65","0,68","0"
"null","","","html-keyboard-response","97","399898","0.0-97.0","<h1 style=""font-size: 35px"">SNACK</h1><h1 style=""font-size: 35px; margin-top: 45px;"">CAMEL</h1>","null","",""
"1249","","","html-keyboard-response","98","401900","0.0-98.0","<h1 style=""font-size: 35px;"">DUST<span style=""color: #ff0000; padding-left: 50px; padding-right: 50px;""> ? </span>ACTRESS</h1>","65","4,many","0"
"null","","","html-keyboard-response","99","406655","0.0-99.0","<h1 style=""font-size: 35px"">CRICKET</h1><h1 style=""font-size: 35px; margin-top: 45px;"">WARDROBE</h1>","null","",""
"4217","","","html-keyboard-response","100","411625","0.0-100.0","<h1 style=""font-size: 35px;"">DRAWING<span style=""color: #ff0000; padding-left: 50px; padding-right: 50px;""> ? </span>GREASE</h1>","65","4,16","1"
"null","","","html-keyboard-response","101","416381","0.0-101.0","<h1 style=""font-size: 35px"">BUGGY</h1><h1 style=""font-size: 35px; margin-top: 45px;"">DAUGHTER</h1>","null","",""
"1048","","","html-keyboard-response","102","418181","0.0-102.0","<h1 style=""font-size: 35px;"">CAMEL<span style=""color: #ff0000; padding-left: 50px; padding-right: 50px;""> ? </span>BUGGY</h1>","76","0,4","1"
"null","","","html-keyboard-response","103","422936","0.0-103.0","<h1 style=""font-size: 35px"">BUG</h1><h1 style=""font-size: 35px; margin-top: 45px;"">NIGHTGOWN</h1>","null","",""
"954","","","html-keyboard-response","104","424640","0.0-104.0","<h1 style=""font-size: 35px;"">LILY<span style=""color: #ff0000; padding-left: 50px; padding-right: 50px;""> ? </span>BUG</h1>","76","0,many","1"
"null","","","html-keyboard-response","105","429393","0.0-105.0","<h1 style=""font-size: 35px"">OUTLAW</h1><h1 style=""font-size: 35px; margin-top: 45px;"">STOMACH</h1>","null","",""
"814","","","html-keyboard-response","106","430961","0.0-106.0","<h1 style=""font-size: 35px;"">OUTLAW<span style=""color: #ff0000; padding-left: 50px; padding-right: 50px;""> ? </span>CREVICE</h1>","65","0,68","0"
"null","","","html-keyboard-response","107","435713","0.0-107.0","<h1 style=""font-size: 35px"">VAGRANT</h1><h1 style=""font-size: 35px; margin-top: 45px;"">SUPPER</h1>","null","",""
"1751","","","html-keyboard-response","108","438217","0.0-108.0","<h1 style=""font-size: 35px;"">CLOUD<span style=""color: #ff0000; padding-left: 50px; padding-right: 50px;""> ? </span>DRUG</h1>","65","16,many","1"
"null","","","html-keyboard-response","109","442972","0.0-109.0","<h1 style=""font-size: 35px"">BARLEY</h1><h1 style=""font-size: 35px; margin-top: 45px;"">PADDING</h1>","null","",""
"1789","","","html-keyboard-response","110","445515","0.0-110.0","<h1 style=""font-size: 35px;"">SCALPEL<span style=""color: #ff0000; padding-left: 50px; padding-right: 50px;""> ? </span>PEACH</h1>","65","68,many","0"
"null","","","html-keyboard-response","111","450271","0.0-111.0","<h1 style=""font-size: 35px"">SUNRISE</h1><h1 style=""font-size: 35px; margin-top: 45px;"">POLICE</h1>","null","",""
"1544","","","html-keyboard-response","112","452568","0.0-112.0","<h1 style=""font-size: 35px;"">PLAYGROUND<span style=""color: #ff0000; padding-left: 50px; padding-right: 50px;""> ? </span>VAGRANT</h1>","76","4,many","1"
"null","","","html-keyboard-response","113","457323","0.0-113.0","<h1 style=""font-size: 35px"">POSSUM</h1><h1 style=""font-size: 35px; margin-top: 45px;"">POET</h1>","null","",""
"5098","","","html-keyboard-response","114","463171","0.0-114.0","<h1 style=""font-size: 35px;"">SHELTER<span style=""color: #ff0000; padding-left: 50px; padding-right: 50px;""> ? </span>BARLEY</h1>","65","4,68","1"
"null","","","html-keyboard-response","115","467924","0.0-115.0","<h1 style=""font-size: 35px"">MUSTARD</h1><h1 style=""font-size: 35px; margin-top: 45px;"">GYMNAST</h1>","null","",""
"1192","","","html-keyboard-response","116","469868","0.0-116.0","<h1 style=""font-size: 35px;"">MUSTARD<span style=""color: #ff0000; padding-left: 50px; padding-right: 50px;""> ? </span>POSSUM</h1>","65","0,2","0"
"null","","","html-keyboard-response","117","474623","0.0-117.0","<h1 style=""font-size: 35px"">PAPER</h1><h1 style=""font-size: 35px; margin-top: 45px;"">HEADBAND</h1>","null","",""
"2180","","","html-keyboard-response","118","477555","0.0-118.0","<h1 style=""font-size: 35px;"">POET<span style=""color: #ff0000; padding-left: 50px; padding-right: 50px;""> ? </span>DAUGHTER</h1>","65","4,16","0"
"null","","","html-keyboard-response","119","482308","0.0-119.0","<h1 style=""font-size: 35px"">BRICK</h1><h1 style=""font-size: 35px; margin-top: 45px;"">KIDNEY</h1>","null","",""
"2690","","","html-keyboard-response","120","485751","0.0-120.0","<h1 style=""font-size: 35px;"">PAPER<span style=""color: #ff0000; padding-left: 50px; padding-right: 50px;""> ? </span>GYMNAST</h1>","76","2,4","0"
"null","","","html-keyboard-response","121","490503","0.0-121.0","<h1 style=""font-size: 35px"">BALLOON</h1><h1 style=""font-size: 35px; margin-top: 45px;"">EYELASH</h1>","null","",""
"6455","","","html-keyboard-response","122","497709","0.0-122.0","<h1 style=""font-size: 35px;"">CLIMBER<span style=""color: #ff0000; padding-left: 50px; padding-right: 50px;""> ? </span>STOMACH</h1>","76","16,68","1"
"null","","","html-keyboard-response","123","502461","0.0-123.0","<h1 style=""font-size: 35px"">SAUSAGE</h1><h1 style=""font-size: 35px; margin-top: 45px;"">CROSS</h1>","null","",""
"1577","","","html-keyboard-response","124","504792","0.0-124.0","<h1 style=""font-size: 35px;"">BALLOON<span style=""color: #ff0000; padding-left: 50px; padding-right: 50px;""> ? </span>PORTRAIT</h1>","65","2,many","0"
"null","","","html-keyboard-response","125","509548","0.0-125.0","<h1 style=""font-size: 35px"">PRINCE</h1><h1 style=""font-size: 35px; margin-top: 45px;"">SPIDER</h1>","null","",""
"805","","","html-keyboard-response","126","511105","0.0-126.0","<h1 style=""font-size: 35px;"">PADDING<span style=""color: #ff0000; padding-left: 50px; padding-right: 50px;""> ? </span>PRINCE</h1>","76","0,16","1"
"null","","","html-keyboard-response","127","515862","0.0-127.0","<h1 style=""font-size: 35px"">FIDDLE</h1><h1 style=""font-size: 35px; margin-top: 45px;"">SUITCASE</h1>","null","",""
"3896","","","html-keyboard-response","128","520511","0.0-128.0","<h1 style=""font-size: 35px;"">SPIDER<span style=""color: #ff0000; padding-left: 50px; padding-right: 50px;""> ? </span>SUNRISE</h1>","65","2,16","0"
"null","","","html-keyboard-response","129","525264","0.0-129.0","<h1 style=""font-size: 35px"">SLOPE</h1><h1 style=""font-size: 35px; margin-top: 45px;"">NECKLACE</h1>","null","",""
"6695","","","html-keyboard-response","130","532715","0.0-130.0","<h1 style=""font-size: 35px;"">LAMP<span style=""color: #ff0000; padding-left: 50px; padding-right: 50px;""> ? </span>FIDDLE</h1>","76","2,68","1"
"null","","","html-keyboard-response","131","537470","0.0-131.0","<h1 style=""font-size: 35px"">SLIME</h1><h1 style=""font-size: 35px; margin-top: 45px;"">SILK</h1>","null","",""
"936","","","html-keyboard-response","132","539158","0.0-132.0","<h1 style=""font-size: 35px;"">SUITCASE<span style=""color: #ff0000; padding-left: 50px; padding-right: 50px;""> ? </span>SLIME</h1>","76","0,4","1"
"null","","","html-keyboard-response","133","543912","0.0-133.0","<h1 style=""font-size: 35px"">HELMET</h1><h1 style=""font-size: 35px; margin-top: 45px;"">BOUQUET</h1>","null","",""
"2722","","","html-keyboard-response","134","547387","0.0-134.0","<h1 style=""font-size: 35px;"">SILK<span style=""color: #ff0000; padding-left: 50px; padding-right: 50px;""> ? </span>SLOPE</h1>","76","2,4","0"
"null","","","html-keyboard-response","135","552141","0.0-135.0","<h1 style=""font-size: 35px"">OX</h1><h1 style=""font-size: 35px; margin-top: 45px;"">CANYON</h1>","null","",""
"741","","","html-keyboard-response","136","553635","0.0-136.0","<h1 style=""font-size: 35px;"">OX<span style=""color: #ff0000; padding-left: 50px; padding-right: 50px;""> ? </span>ULCER</h1>","65","0,many","0"
"null","","","html-keyboard-response","137","558389","0.0-137.0","<h1 style=""font-size: 35px"">HATCHET</h1><h1 style=""font-size: 35px; margin-top: 45px;"">GUARD</h1>","null","",""
"780","","","html-keyboard-response","138","559919","0.0-138.0","<h1 style=""font-size: 35px;"">HATCHET<span style=""color: #ff0000; padding-left: 50px; padding-right: 50px;""> ? </span>EYELASH</h1>","65","0,16","0"
"null","","","html-keyboard-response","139","564672","0.0-139.0","<h1 style=""font-size: 35px"">GHETTO</h1><h1 style=""font-size: 35px; margin-top: 45px;"">FLESH</h1>","null","",""
"3473","","","html-keyboard-response","140","568898","0.0-140.0","<h1 style=""font-size: 35px;"">GUARD<span style=""color: #ff0000; padding-left: 50px; padding-right: 50px;""> ? </span>SAUSAGE</h1>","76","2,16","0"
"null","","","html-keyboard-response","141","573654","0.0-141.0","<h1 style=""font-size: 35px"">SALMON</h1><h1 style=""font-size: 35px; margin-top: 45px;"">SPARROW</h1>","null","",""
"863","","","html-keyboard-response","142","575270","0.0-142.0","<h1 style=""font-size: 35px;"">GHETTO<span style=""color: #ff0000; padding-left: 50px; padding-right: 50px;""> ? </span>SALMON</h1>","76","0,2","1"
"null","","","html-keyboard-response","143","580024","0.0-143.0","<h1 style=""font-size: 35px"">BOX</h1><h1 style=""font-size: 35px; margin-top: 45px;"">OZONE</h1>","null","",""
"1213","","","html-keyboard-response","144","581988","0.0-144.0","<h1 style=""font-size: 35px;"">BUNNY<span style=""color: #ff0000; padding-left: 50px; padding-right: 50px;""> ? </span>SPARROW</h1>","76","2,many","1"
"null","","","html-keyboard-response","145","586744","0.0-145.0","<h1 style=""font-size: 35px"">MACHINE</h1><h1 style=""font-size: 35px; margin-top: 45px;"">SODA</h1>","null","",""
"917","","","html-keyboard-response","146","588413","0.0-146.0","<h1 style=""font-size: 35px;"">BOX<span style=""color: #ff0000; padding-left: 50px; padding-right: 50px;""> ? </span>GLOVE</h1>","65","4,many","0"
"null","","","html-keyboard-response","147","593167","0.0-147.0","<h1 style=""font-size: 35px"">STAR</h1><h1 style=""font-size: 35px; margin-top: 45px;"">SWAMP</h1>","null","",""
"1610","","","html-keyboard-response","148","595528","0.0-148.0","<h1 style=""font-size: 35px;"">OUTDOORS<span style=""color: #ff0000; padding-left: 50px; padding-right: 50px;""> ? </span>STAR</h1>","76","0,68","1"
"null","","","html-keyboard-response","149","600285","0.0-149.0","<h1 style=""font-size: 35px"">PLAZA</h1><h1 style=""font-size: 35px; margin-top: 45px;"">GUITAR</h1>","null","",""
"2641","","","html-keyboard-response","150","603678","0.0-150.0","<h1 style=""font-size: 35px;"">HELMET<span style=""color: #ff0000; padding-left: 50px; padding-right: 50px;""> ? </span>TRIBE</h1>","76","16,many","0"
"null","","","html-keyboard-response","151","608431","0.0-151.0","<h1 style=""font-size: 35px"">PERMIT</h1><h1 style=""font-size: 35px; margin-top: 45px;"">PARENT</h1>","null","",""
"1664","","","html-keyboard-response","152","610848","0.0-152.0","<h1 style=""font-size: 35px;"">TREAT<span style=""color: #ff0000; padding-left: 50px; padding-right: 50px;""> ? </span>CANYON</h1>","76","16,68","1"
"null","","","html-keyboard-response","153","615600","0.0-153.0","<h1 style=""font-size: 35px"">CASKET</h1><h1 style=""font-size: 35px; margin-top: 45px;"">PIANO</h1>","null","",""
"1901","","","html-keyboard-response","154","618253","0.0-154.0","<h1 style=""font-size: 35px;"">PLAZA<span style=""color: #ff0000; padding-left: 50px; padding-right: 50px;""> ? </span>CASKET</h1>","76","0,4","1"
"null","","","html-keyboard-response","155","623008","0.0-155.0","<h1 style=""font-size: 35px"">LOVER</h1><h1 style=""font-size: 35px; margin-top: 45px;"">LADY</h1>","null","",""
"6662","","","html-keyboard-response","156","630421","0.0-156.0","<h1 style=""font-size: 35px;"">COOK<span style=""color: #ff0000; padding-left: 50px; padding-right: 50px;""> ? </span>SKETCH</h1>","76","68,many","0"
"null","","","html-keyboard-response","157","635176","0.0-157.0","<h1 style=""font-size: 35px"">BANKER</h1><h1 style=""font-size: 35px; margin-top: 45px;"">YOLK</h1>","null","",""
"2851","","","html-keyboard-response","158","638778","0.0-158.0","<h1 style=""font-size: 35px;"">LOVER<span style=""color: #ff0000; padding-left: 50px; padding-right: 50px;""> ? </span>RATTLE</h1>","65","2,68","0"
"null","","","html-keyboard-response","159","643532","0.0-159.0","<h1 style=""font-size: 35px"">COSTUME</h1><h1 style=""font-size: 35px; margin-top: 45px;"">SEAFOOD</h1>","null","",""
"1570","","","html-keyboard-response","160","645855","0.0-160.0","<h1 style=""font-size: 35px;"">SNACK<span style=""color: #ff0000; padding-left: 50px; padding-right: 50px;""> ? </span>LADY</h1>","76","4,68","1"
"null","","","html-keyboard-response","161","650610","0.0-161.0","<h1 style=""font-size: 35px"">STAPLE</h1><h1 style=""font-size: 35px; margin-top: 45px;"">GLASS</h1>","null","",""
"1054","","","html-keyboard-response","162","652416","0.0-162.0","<h1 style=""font-size: 35px;"">YOLK<span style=""color: #ff0000; padding-left: 50px; padding-right: 50px;""> ? </span>MACHINE</h1>","65","4,16","0"
"null","","","html-keyboard-response","163","657171","0.0-163.0","<h1 style=""font-size: 35px"">BADGE</h1><h1 style=""font-size: 35px; margin-top: 45px;"">DUSTPAN</h1>","null","",""
"3317","","","html-keyboard-response","164","661239","0.0-164.0","<h1 style=""font-size: 35px;"">SWAMP<span style=""color: #ff0000; padding-left: 50px; padding-right: 50px;""> ? </span>COSTUME</h1>","65","4,16","1"
"null","","","html-keyboard-response","165","665995","0.0-165.0","<h1 style=""font-size: 35px"">LION</h1><h1 style=""font-size: 35px; margin-top: 45px;"">STONE</h1>","null","",""
"5923","","","html-keyboard-response","166","672675","0.0-166.0","<h1 style=""font-size: 35px;"">GUITAR<span style=""color: #ff0000; padding-left: 50px; padding-right: 50px;""> ? </span>LION</h1>","76","0,16","1"
"null","","","html-keyboard-response","167","677428","0.0-167.0","<h1 style=""font-size: 35px"">CANAL</h1><h1 style=""font-size: 35px; margin-top: 45px;"">HANDBAG</h1>","null","",""
"2687","","","html-keyboard-response","168","680868","0.0-168.0","<h1 style=""font-size: 35px;"">CRICKET<span style=""color: #ff0000; padding-left: 50px; padding-right: 50px;""> ? </span>BADGE</h1>","76","4,68","1"
"null","","","html-keyboard-response","169","685627","0.0-169.0","<h1 style=""font-size: 35px"">ITEM</h1><h1 style=""font-size: 35px; margin-top: 45px;"">PARTNER</h1>","null","",""
"1543","","","html-keyboard-response","170","687925","0.0-170.0","<h1 style=""font-size: 35px;"">CANAL<span style=""color: #ff0000; padding-left: 50px; padding-right: 50px;""> ? </span>ITEM</h1>","76","0,2","1"
"null","","","html-keyboard-response","171","692678","0.0-171.0","<h1 style=""font-size: 35px"">RADISH</h1><h1 style=""font-size: 35px; margin-top: 45px;"">DIVER</h1>","null","",""
"1083","","","html-keyboard-response","172","694514","0.0-172.0","<h1 style=""font-size: 35px;"">RADISH<span style=""color: #ff0000; padding-left: 50px; padding-right: 50px;""> ? </span>NIGHTGOWN</h1>","65","0,68","0"
"null","","","html-keyboard-response","173","699267","0.0-173.0","<h1 style=""font-size: 35px"">FLUTE</h1><h1 style=""font-size: 35px; margin-top: 45px;"">ARMY</h1>","null","",""
"5486","","","html-keyboard-response","174","705506","0.0-174.0","<h1 style=""font-size: 35px;"">DIVER<span style=""color: #ff0000; padding-left: 50px; padding-right: 50px;""> ? </span>MUMMY</h1>","65","2,many","0"
"null","","","html-keyboard-response","175","710260","0.0-175.0","<h1 style=""font-size: 35px"">STAMP</h1><h1 style=""font-size: 35px; margin-top: 45px;"">RACKET</h1>","null","",""
"1328","","","html-keyboard-response","176","712339","0.0-176.0","<h1 style=""font-size: 35px;"">FLUTE<span style=""color: #ff0000; padding-left: 50px; padding-right: 50px;""> ? </span>SEAFOOD</h1>","65","2,16","0"
"null","","","html-keyboard-response","177","717095","0.0-177.0","<h1 style=""font-size: 35px"">TEMPLE</h1><h1 style=""font-size: 35px; margin-top: 45px;"">DRIVER</h1>","null","",""
"3887","","","html-keyboard-response","178","721734","0.0-178.0","<h1 style=""font-size: 35px;"">HAWK<span style=""color: #ff0000; padding-left: 50px; padding-right: 50px;""> ? </span>ARMY</h1>","65","4,many","1"
"null","","","html-keyboard-response","179","726489","0.0-179.0","<h1 style=""font-size: 35px"">COD</h1><h1 style=""font-size: 35px; margin-top: 45px;"">POSTAGE</h1>","null","",""
"1797","","","html-keyboard-response","180","729039","0.0-180.0","<h1 style=""font-size: 35px;"">POLICE<span style=""color: #ff0000; padding-left: 50px; padding-right: 50px;""> ? </span>KLEENEX</h1>","65","68,many","0"
"null","","","html-keyboard-response","181","733796","0.0-181.0","<h1 style=""font-size: 35px"">PLAID</h1><h1 style=""font-size: 35px; margin-top: 45px;"">TURKEY</h1>","null","",""
"3924","","","html-keyboard-response","182","738475","0.0-182.0","<h1 style=""font-size: 35px;"">LADDER<span style=""color: #ff0000; padding-left: 50px; padding-right: 50px;""> ? </span>STONE</h1>","76","16,many","1"
"null","","","html-keyboard-response","183","743228","0.0-183.0","<h1 style=""font-size: 35px"">LETTUCE</h1><h1 style=""font-size: 35px; margin-top: 45px;"">FOOTBALL</h1>","null","",""
"1534","","","html-keyboard-response","184","745512","0.0-184.0","<h1 style=""font-size: 35px;"">COD<span style=""color: #ff0000; padding-left: 50px; padding-right: 50px;""> ? </span>LETTUCE</h1>","76","0,4","1"
"null","","","html-keyboard-response","185","750268","0.0-185.0","<h1 style=""font-size: 35px"">TUBA</h1><h1 style=""font-size: 35px; margin-top: 45px;"">ARM</h1>","null","",""
"2111","","","html-keyboard-response","186","753130","0.0-186.0","<h1 style=""font-size: 35px;"">HEADBAND<span style=""color: #ff0000; padding-left: 50px; padding-right: 50px;""> ? </span>FOOTBALL</h1>","76","2,68","1"
"null","","","html-keyboard-response","187","757883","0.0-187.0","<h1 style=""font-size: 35px"">YARN</h1><h1 style=""font-size: 35px; margin-top: 45px;"">COIN</h1>","null","",""
"1706","","","html-keyboard-response","188","760340","0.0-188.0","<h1 style=""font-size: 35px;"">TUBA<span style=""color: #ff0000; padding-left: 50px; padding-right: 50px;""> ? </span>ARM</h1>","65","2,4","1"
"null","","","html-keyboard-response","189","765093","0.0-189.0","<h1 style=""font-size: 35px"">FLAG</h1><h1 style=""font-size: 35px; margin-top: 45px;"">CASHIER</h1>","null","",""
"8080","","","html-keyboard-response","190","773926","0.0-190.0","<h1 style=""font-size: 35px;"">LAKE<span style=""color: #ff0000; padding-left: 50px; padding-right: 50px;""> ? </span>FLAG</h1>","76","0,many","1"
"null","","","html-keyboard-response","191","778679","0.0-191.0","<h1 style=""font-size: 35px"">PASSAGE</h1><h1 style=""font-size: 35px; margin-top: 45px;"">MEAT</h1>","null","",""
"3230","","","html-keyboard-response","192","782660","0.0-192.0","<h1 style=""font-size: 35px;"">CROSS<span style=""color: #ff0000; padding-left: 50px; padding-right: 50px;""> ? </span>RACKET</h1>","76","16,68","1"
"null","","","html-keyboard-response","193","787413","0.0-193.0","<h1 style=""font-size: 35px"">BUTCHER</h1><h1 style=""font-size: 35px; margin-top: 45px;"">BREAST</h1>","null","",""
"20831","","","html-keyboard-response","194","808995","0.0-194.0","<h1 style=""font-size: 35px;"">DRIVER<span style=""color: #ff0000; padding-left: 50px; padding-right: 50px;""> ? </span>PASSAGE</h1>","65","2,16","1"
"null","","","html-keyboard-response","195","813749","0.0-195.0","<h1 style=""font-size: 35px"">LUMBER</h1><h1 style=""font-size: 35px; margin-top: 45px;"">WASHER</h1>","null","",""
"2900","","","html-keyboard-response","196","817400","0.0-196.0","<h1 style=""font-size: 35px;"">MEAT<span style=""color: #ff0000; padding-left: 50px; padding-right: 50px;""> ? </span>BUTCHER</h1>","76","2,4","1"
"null","","","html-keyboard-response","197","822154","0.0-197.0","<h1 style=""font-size: 35px"">MUFFIN</h1><h1 style=""font-size: 35px; margin-top: 45px;"">BISON</h1>","null","",""
"1017","","","html-keyboard-response","198","823923","0.0-198.0","<h1 style=""font-size: 35px;"">PLAID<span style=""color: #ff0000; padding-left: 50px; padding-right: 50px;""> ? </span>NECKLACE</h1>","65","16,68","0"
"null","","","html-keyboard-response","199","828681","0.0-199.0","<h1 style=""font-size: 35px"">GRIZZLY</h1><h1 style=""font-size: 35px; margin-top: 45px;"">MARSH</h1>","null","",""
"1000","","","html-keyboard-response","200","830432","0.0-200.0","<h1 style=""font-size: 35px;"">LUMBER<span style=""color: #ff0000; padding-left: 50px; padding-right: 50px;""> ? </span>GRIZZLY</h1>","76","0,4","1"
"null","","","html-keyboard-response","201","835186","0.0-201.0","<h1 style=""font-size: 35px"">BANQUET</h1><h1 style=""font-size: 35px; margin-top: 45px;"">FRIEND</h1>","null","",""
"2091","","","html-keyboard-response","202","838029","0.0-202.0","<h1 style=""font-size: 35px;"">BOUQUET<span style=""color: #ff0000; padding-left: 50px; padding-right: 50px;""> ? </span>MUFFIN</h1>","76","4,68","1"
"null","","","html-keyboard-response","203","842784","0.0-203.0","<h1 style=""font-size: 35px"">ACTOR</h1><h1 style=""font-size: 35px; margin-top: 45px;"">FLASHLIGHT</h1>","null","",""
"2131","","","html-keyboard-response","204","845666","0.0-204.0","<h1 style=""font-size: 35px;"">BANK<span style=""color: #ff0000; padding-left: 50px; padding-right: 50px;""> ? </span>COIN</h1>","76","16,many","1"
"null","","","html-keyboard-response","205","850418","0.0-205.0","<h1 style=""font-size: 35px"">OUTFIT</h1><h1 style=""font-size: 35px; margin-top: 45px;"">SCALLOP</h1>","null","",""
"1548","","","html-keyboard-response","206","852717","0.0-206.0","<h1 style=""font-size: 35px;"">POCKET<span style=""color: #ff0000; padding-left: 50px; padding-right: 50px;""> ? </span>BANQUET</h1>","76","4,many","1"
"null","","","html-keyboard-response","207","857472","0.0-207.0","<h1 style=""font-size: 35px"">CUSTARD</h1><h1 style=""font-size: 35px; margin-top: 45px;"">GANGSTER</h1>","null","",""
"1711","","","html-keyboard-response","208","859936","0.0-208.0","<h1 style=""font-size: 35px;"">OUTFIT<span style=""color: #ff0000; padding-left: 50px; padding-right: 50px;""> ? </span>CUSTARD</h1>","76","0,2","1"
"null","","","html-keyboard-response","209","864692","0.0-209.0","<h1 style=""font-size: 35px"">INMATE</h1><h1 style=""font-size: 35px; margin-top: 45px;"">LIGHTNING</h1>","null","",""
"1160","","","html-keyboard-response","210","866605","0.0-210.0","<h1 style=""font-size: 35px;"">SCALLOP<span style=""color: #ff0000; padding-left: 50px; padding-right: 50px;""> ? </span>BREAST</h1>","65","4,16","0"
"null","","","html-keyboard-response","211","871359","0.0-211.0","<h1 style=""font-size: 35px"">PUDDLE</h1><h1 style=""font-size: 35px; margin-top: 45px;"">TOMBSTONE</h1>","null","",""
"8239","","","html-keyboard-response","212","880351","0.0-212.0","<h1 style=""font-size: 35px;"">INMATE<span style=""color: #ff0000; padding-left: 50px; padding-right: 50px;""> ? </span>VIKING</h1>","76","2,many","0"
"null","","","html-keyboard-response","213","885106","0.0-213.0","<h1 style=""font-size: 35px"">CAPTIVE</h1><h1 style=""font-size: 35px; margin-top: 45px;"">FOX</h1>","null","",""
"730","","","html-keyboard-response","214","886586","0.0-214.0","<h1 style=""font-size: 35px;"">CAPTIVE<span style=""color: #ff0000; padding-left: 50px; padding-right: 50px;""> ? </span>SODA</h1>","65","0,68","0"
"null","","","html-keyboard-response","215","891342","0.0-215.0","<h1 style=""font-size: 35px"">SLIDE</h1><h1 style=""font-size: 35px; margin-top: 45px;"">SWIMMER</h1>","null","",""
"741","","","html-keyboard-response","216","892836","0.0-216.0","<h1 style=""font-size: 35px;"">SLIDE<span style=""color: #ff0000; padding-left: 50px; padding-right: 50px;""> ? </span>WRENCH</h1>","65","0,many","0"
"null","","","html-keyboard-response","217","897591","0.0-217.0","<h1 style=""font-size: 35px"">HARP</h1><h1 style=""font-size: 35px; margin-top: 45px;"">CARROT</h1>","null","",""
"831","","","html-keyboard-response","218","899173","0.0-218.0","<h1 style=""font-size: 35px;"">HARP<span style=""color: #ff0000; padding-left: 50px; padding-right: 50px;""> ? </span>FRIEND</h1>","65","0,16","0"
"null","","","html-keyboard-response","219","903927","0.0-219.0","<h1 style=""font-size: 35px"">QUARTER</h1><h1 style=""font-size: 35px; margin-top: 45px;"">DRESSER</h1>","null","",""
"1375","","","html-keyboard-response","220","906053","0.0-220.0","<h1 style=""font-size: 35px;"">FRIAR<span style=""color: #ff0000; padding-left: 50px; padding-right: 50px;""> ? </span>PERMIT</h1>","76","68,many","1"
"null","","","html-keyboard-response","221","910807","0.0-221.0","<h1 style=""font-size: 35px"">TYPIST</h1><h1 style=""font-size: 35px; margin-top: 45px;"">THREAD</h1>","null","",""
"2944","","","html-keyboard-response","222","914503","0.0-222.0","<h1 style=""font-size: 35px;"">QUARTER<span style=""color: #ff0000; padding-left: 50px; padding-right: 50px;""> ? </span>PIANO</h1>","65","2,68","0"
